"Time (s)","Linear Acceleration x (m/s^2)","Linear Acceleration y (m/s^2)","Linear Acceleration z (m/s^2)","Absolute acceleration (m/s^2)"
3.517541667E-3,2.524877055E-2,-5.143817537E-2,1.691248655E-2,5.974461064E-2
1.347354167E-2,4.286959246E-3,-6.096690763E-3,-1.510405970E-1,1.512243684E-1
2.342954167E-2,-5.725739747E-3,-4.803140480E-3,-1.481994349E-1,1.483877581E-1
3.338554167E-2,-7.970357928E-3,-1.795899197E-3,-8.802106082E-2,8.839942878E-2
4.334254167E-2,1.587995963E-2,3.822419889E-2,-1.079290760E-1,1.155938923E-1
5.329854167E-2,4.580083821E-2,4.147852158E-2,2.020739257E-2,6.501171624E-2
6.325454167E-2,3.699211746E-2,-2.427380215E-3,-5.643264771E-2,6.752001671E-2
7.321054167E-2,9.659848765E-2,-3.357632026E-2,-1.383100390E-1,1.720125112E-1
8.316654167E-2,7.675541315E-2,-4.140300114E-2,-1.698984522E-1,1.909740454E-1
9.312254167E-2,4.494571947E-2,1.742855815E-2,-1.145188880E-1,1.242515515E-1
1.030795417E-1,-4.797165357E-3,4.974220874E-2,-1.160186988E-1,1.263235473E-1
1.130355417E-1,-1.589516239E-2,5.658440122E-2,-8.092546463E-3,5.932908189E-2
1.229915417E-1,-1.278557656E-2,3.038567740E-2,1.047353268E-2,3.458981420E-2
1.329475417E-1,-4.777911572E-2,-2.107722072E-2,-1.730407459E-1,1.807489775E-1
1.429035417E-1,-4.586923236E-2,-1.646334730E-2,-5.358388424E-2,7.243107711E-2
1.528605417E-1,-3.328414220E-2,1.556283955E-2,-1.380053991E-1,1.428129066E-1
1.628165417E-1,-2.946956489E-2,-2.864337159E-2,-1.959361035E-1,2.001995370E-1
1.727725417E-1,-8.145421738E-2,-5.824972479E-2,-1.136073071E-1,1.514412103E-1
1.827285417E-1,-7.634727750E-2,-4.036378646E-2,-8.247029901E-2,1.194131159E-1
1.926845417E-1,-8.733335517E-2,-2.024169015E-2,-1.760269189E-1,1.975406721E-1
2.026415417E-1,-3.707328413E-2,8.209276987E-2,-1.191469592E-1,1.493641495E-1
2.125975417E-1,-7.223929787E-2,9.053680709E-2,-7.603543818E-2,1.385525801E-1
2.225535417E-1,-4.142662754E-2,1.702440592E-2,-4.609710932E-2,6.427238407E-2
2.325095417E-1,-2.127133001E-2,-2.400028037E-2,-4.310333490E-2,5.372504461E-2
2.424655417E-1,1.354516642E-2,-8.315003783E-2,-2.339576232E-1,2.486635675E-1
2.524225417E-1,5.120728344E-2,-8.188906750E-2,-2.387511706E-1,2.575463584E-1
2.623785417E-1,2.446237486E-2,-2.612038940E-2,-8.397771120E-2,9.128493033E-2
2.723345417E-1,3.465504019E-2,-3.754285209E-2,-1.772384620E-1,1.844557127E-1
2.822905417E-1,-8.209289778E-3,-1.879662389E-2,-1.604768336E-1,1.617823217E-1
2.922465417E-1,1.107201347E-2,2.393504737E-2,1.361348748E-2,2.967832570E-2
3.022035417E-1,2.939110257E-2,3.088459108E-2,4.564570427E-2,6.245978862E-2
3.121595417E-1,4.987457508E-2,-3.224227801E-3,-6.093149543E-2,7.880682724E-2
3.221155417E-1,2.811434476E-2,-1.763913101E-2,-1.293409950E-1,1.335314506E-1
3.320715417E-1,3.412880905E-2,-2.080874216E-2,-9.835542977E-2,1.061676501E-1
3.420275417E-1,1.273896329E-2,-2.489561699E-2,-1.284416932E-1,1.314509090E-1
3.519835417E-1,2.317761367E-2,1.652368326E-2,-1.278452772E-1,1.309757565E-1
3.619405417E-1,9.512195606E-3,9.962339848E-3,-1.607808888E-1,1.613698370E-1
3.718965417E-1,-7.648751931E-2,3.783588896E-2,-5.704602063E-2,1.026457187E-1
3.818525417E-1,-8.455547092E-2,6.447971379E-2,-1.221582752E-1,1.619564922E-1
3.918085417E-1,-6.507006330E-2,7.537892377E-2,-1.306846851E-1,1.643002806E-1
4.017645417E-1,-5.223801965E-2,2.572186511E-2,-5.987782717E-2,8.352113043E-2
4.117215417E-1,-6.336782919E-2,-1.526192721E-2,-1.145142102E-1,1.317646104E-1
4.216775417E-1,-4.990593078E-2,-3.972695159E-2,-1.365166980E-1,1.506839124E-1
4.316335417E-1,-3.367245214E-2,-5.347381040E-2,-1.796247107E-1,1.904161735E-1
4.415895417E-1,-1.580010859E-2,-4.755376037E-2,-1.294824976E-1,1.388406307E-1
4.515455417E-1,-6.224713722E-2,-4.676405735E-2,-9.909861088E-2,1.260242748E-1
4.615025417E-1,-3.808350027E-2,-4.663775750E-3,-1.038892347E-1,1.107478075E-1
4.714585417E-1,6.465924159E-4,1.064355874E-2,-1.579262781E-1,1.582858577E-1
4.814145417E-1,-1.185705699E-2,4.970261212E-3,-8.352572143E-2,8.450940443E-2
4.913705417E-1,-4.850795288E-3,1.949271664E-2,-7.783287227E-2,8.038315883E-2
5.013265417E-1,4.817466158E-2,-1.122522879E-2,-1.624069995E-1,1.697728991E-1
5.112835417E-1,3.996679706E-2,-2.795597658E-2,-9.803792596E-2,1.095003033E-1
5.212395417E-1,4.478322169E-2,-1.415937988E-2,-1.540203381E-1,1.610226367E-1
5.311955417E-1,2.761689289E-2,-2.539866026E-2,-5.523046017E-2,6.676966711E-2
5.411515417E-1,4.196225077E-2,1.745476099E-2,-3.740463853E-3,4.560142805E-2
5.511075417E-1,1.607383138E-2,4.594060494E-2,-7.768844604E-2,9.167552501E-2
5.610645417E-1,-1.079145676E-2,2.575091846E-2,-9.939214110E-2,1.032393484E-1
5.710205417E-1,2.156873401E-2,1.761493815E-2,-1.010381323E-1,1.048055367E-1
5.809765417E-1,-8.442812953E-3,-1.117910888E-2,-2.041748303E-1,2.046548678E-1
5.909325417E-1,-2.756441412E-2,-1.101619083E-2,-1.431030017E-1,1.461493157E-1
6.008885417E-1,-2.882836288E-2,-2.615642287E-3,-7.933736086E-2,8.445314037E-2
6.108445417E-1,-2.588523997E-2,-1.456870325E-2,-1.676560450E-1,1.702669732E-1
6.208015417E-1,-6.999880929E-2,-3.805488545E-2,-9.895009160E-2,1.270398687E-1
6.307575417E-1,-4.585278707E-2,2.978487600E-2,-8.457763553E-2,1.007124290E-1
6.407135417E-1,-5.300910294E-2,-7.022104003E-3,-1.645096582E-1,1.729817984E-1
6.506695417E-1,-1.924446579E-2,1.040563188E-2,2.575230718E-2,3.379064905E-2
6.606255417E-1,-3.688292071E-2,-6.386966648E-2,-2.448889929E-1,2.557543802E-1
6.705825417E-1,-9.691504128E-3,-8.398372287E-2,-6.152031004E-2,1.045559157E-1
6.805385417E-1,-3.720217869E-3,-4.307632808E-2,-1.360717249E-1,1.427757836E-1
6.904945417E-1,-8.500371482E-3,-1.822657518E-2,-1.522421998E-1,1.535648129E-1
7.004505417E-1,-3.506021569E-2,2.909537964E-2,-7.156231821E-2,8.483469353E-2
7.104065417E-1,6.882611364E-3,6.882576646E-2,-8.488402963E-2,1.094972829E-1
7.203635417E-1,1.135792404E-2,1.285934284E-2,-7.799717903E-2,7.986191254E-2
7.303195417E-1,-3.007011048E-2,-4.905212766E-2,-1.947537965E-1,2.030747744E-1
7.402755417E-1,-1.498221103E-3,-5.143868700E-3,-8.840405345E-3,1.033715717E-2
7.502315417E-1,2.222066201E-2,1.653605377E-2,-1.729039210E-1,1.751084372E-1
7.601875417E-1,4.880614260E-2,3.956187738E-2,-1.041973829E-1,1.216728248E-1
7.701445417E-1,2.762697933E-2,6.044941077E-2,-1.314401454E-1,1.472884689E-1
7.801005417E-1,-6.008891165E-3,8.504007719E-3,-1.034495240E-1,1.039722508E-1
7.900565417E-1,1.564769726E-2,9.642058611E-3,-8.773220837E-2,8.963682340E-2
8.000125417E-1,-3.065247489E-2,8.463113755E-3,-1.559937733E-1,1.592019341E-1
8.099685417E-1,-3.635341879E-2,3.074325291E-2,-8.553891778E-3,4.837238595E-2
8.199242917E-1,-3.857682254E-3,3.241639713E-2,-7.471747577E-2,8.153775629E-2
8.298812917E-1,-1.805651257E-2,-2.030060085E-2,-1.443221462E-1,1.468571889E-1
8.398372917E-1,-2.228799636E-2,-6.538442424E-2,-1.365365785E-1,1.530167147E-1
8.497932917E-1,-3.067732556E-2,-4.552837623E-2,-1.254584438E-1,1.369443407E-1
8.597492917E-1,-3.881730756E-2,-5.675513992E-2,-1.498594594E-1,1.648811294E-1
8.697052917E-1,-4.324770631E-2,-3.009669704E-2,-5.765237689E-2,7.810231645E-2
8.796622917E-1,-4.081002038E-2,-2.995064456E-2,-7.771125019E-2,9.274447303E-2
8.896182917E-1,-3.107811565E-2,-3.605997993E-2,-1.423779470E-1,1.501254516E-1
8.995742917E-1,-4.739266958E-2,-4.337817231E-2,-9.687316060E-2,1.162417318E-1
9.095302917E-1,-4.265346475E-2,-2.464732960E-2,-8.265507102E-2,9.622198126E-2
9.194862917E-1,-1.869263481E-3,1.907096794E-2,-1.375920010E-1,1.389199579E-1
9.294432917E-1,8.460190147E-3,1.881279510E-2,-1.483707583E-1,1.497977903E-1
9.393992917E-1,2.770584365E-2,3.242271943E-2,-1.275692886E-1,1.345093673E-1
9.493552917E-1,9.023149107E-3,2.723675078E-2,-1.355045450E-1,1.385089871E-1
9.593112917E-1,3.074926458E-2,4.473553034E-2,-1.311635721E-1,1.419530471E-1
9.692672917E-1,1.501395045E-2,3.056672182E-2,-9.688602448E-2,1.026968594E-1
9.792242917E-1,1.553077122E-2,2.322291132E-2,-3.970610261E-2,4.854979968E-2
9.891802917E-1,1.019098425E-2,2.979156375E-4,-1.115566885E-1,1.120216036E-1
9.991362917E-1,2.260206493E-2,-1.629171325E-2,-1.458318973E-1,1.484695778E-1
1.009092292E0,1.153655648E-3,-1.628011018E-2,-5.257173121E-2,5.504688757E-2
1.019048292E0,-7.366486732E-3,-2.522766575E-2,-7.172604024E-2,7.638929961E-2
1.029004292E0,-5.921164658E-3,-4.471393218E-2,-1.488139772E-1,1.554991825E-1
1.038961292E0,-2.522317071E-2,-2.239397714E-2,-1.377305800E-1,1.418006037E-1
1.048917292E0,-1.794596365E-2,3.968761079E-3,-1.172191322E-1,1.186513111E-1
1.058873292E0,-2.703966307E-2,2.063378250E-2,-1.173664820E-1,1.221956933E-1
1.068829292E0,-2.087379243E-2,1.885937182E-2,-1.763420838E-1,1.785718949E-1
1.078785292E0,-3.151084615E-2,1.999166686E-2,-5.539184332E-2,6.678964347E-2
1.088742292E0,-1.170426194E-2,-9.832641296E-4,-8.068982184E-2,8.154019809E-2
1.098698292E0,-1.317342969E-2,-2.277165245E-2,-1.410167152E-1,1.434496475E-1
1.108654292E0,-3.646067865E-2,-5.376547683E-2,-1.010545045E-1,1.201337607E-1
1.118610292E0,-2.647222733E-2,-1.945478283E-2,-3.459563613E-2,4.770875637E-2
1.128566292E0,-9.786521383E-3,-1.819763146E-3,-1.015041554E-1,1.019910834E-1
1.138523292E0,-1.132406501E-2,-2.826206004E-2,-1.001534486E-1,1.046789938E-1
1.148479292E0,-2.253281197E-2,-3.725220893E-2,-9.042426646E-2,1.003593675E-1
1.158435292E0,-8.430332802E-3,-1.950715195E-2,-6.692138314E-2,7.021446439E-2
1.168391292E0,2.055380356E-2,-1.034226269E-3,-1.905654359E-1,1.916734562E-1
1.178347292E0,3.545313030E-3,7.898290996E-3,-1.254543507E-1,1.257527191E-1
1.188303292E0,-3.420657702E-3,4.630072033E-2,-9.836010754E-2,1.087665774E-1
1.198260292E0,6.594562903E-4,3.763847234E-2,-1.538928688E-1,1.584301251E-1
1.208216292E0,3.665729128E-3,-5.459837615E-5,-1.314378065E-1,1.314889255E-1
1.218172292E0,-1.733458243E-2,2.357140537E-2,-9.700530767E-2,1.013219059E-1
1.228128292E0,-1.130290540E-2,1.914610466E-2,-8.936708987E-2,9.209129028E-2
1.238084292E0,-3.717897255E-3,1.514977030E-4,-1.245433545E-1,1.245989280E-1
1.248041292E0,-6.450337674E-3,-1.968452359E-2,-1.269360352E-1,1.286151015E-1
1.257997292E0,-1.369443487E-2,-1.231211655E-2,-9.804201901E-2,9.975651985E-2
1.267953292E0,-2.054612909E-2,-3.884484429E-2,-1.406997961E-1,1.474025033E-1
1.277909292E0,-2.069382610E-2,-4.954449976E-2,-1.299204540E-1,1.405781500E-1
1.287865292E0,-2.760327984E-2,-2.754948545E-2,-7.588224113E-2,8.531722994E-2
1.297822292E0,-1.845646212E-2,-2.189155513E-2,-8.097107291E-2,8.588478229E-2
1.307778292E0,-2.233091857E-2,-1.541930867E-2,-1.031261730E-1,1.066369193E-1
1.317734292E0,-1.671019116E-2,-1.401864471E-2,-8.681010246E-2,8.950836150E-2
1.327690292E0,4.663885385E-3,6.899988558E-3,-7.962387443E-2,8.005824784E-2
1.337646292E0,6.327948142E-3,-2.495441806E-2,-1.071677685E-1,1.102165891E-1
1.347603292E0,5.670976918E-3,-1.158556346E-2,-8.501383781E-2,8.598684713E-2
1.357559292E0,-1.789302807E-3,1.165468851E-2,-1.131564867E-1,1.137691692E-1
1.367515292E0,1.489030011E-2,3.583296178E-2,-1.252806884E-1,1.311524802E-1
1.377471292E0,8.361445293E-3,2.991039013E-2,-1.368055505E-1,1.402865063E-1
1.387427292E0,-2.289325627E-2,2.386290735E-2,-1.186891222E-1,1.232097693E-1
1.397383292E0,-1.014155701E-2,2.256754808E-2,-1.029700524E-1,1.059007889E-1
1.407340292E0,-9.188881125E-3,-4.154062998E-3,-1.564077562E-1,1.567325045E-1
1.417296292E0,-2.287788905E-2,-2.421240639E-2,-1.580560863E-1,1.615282169E-1
1.427252292E0,-1.539350783E-2,-8.388580028E-3,-9.817884386E-2,9.973170880E-2
1.437208292E0,-1.287991773E-2,2.698855475E-3,-1.480281115E-1,1.486119036E-1
1.447164292E0,-2.384395871E-2,-1.084139563E-2,-1.245269823E-1,1.272518744E-1
1.457121292E0,-4.063149758E-2,-9.297621064E-3,-6.644892812E-2,7.843994136E-2
1.467077292E0,-3.724665407E-2,1.009143541E-2,-5.207530260E-2,6.481502487E-2
1.477033292E0,-2.896902496E-2,-9.533684123E-3,-1.023712975E-1,1.068174990E-1
1.486989292E0,-3.946364416E-2,-1.109362990E-3,-8.755328357E-2,9.604263304E-2
1.496945292E0,-2.655651860E-2,1.551578773E-2,-7.438126087E-2,8.048950440E-2
1.506902292E0,-9.431668483E-3,5.486040451E-3,-8.995005727E-2,9.060941349E-2
1.516858292E0,-2.019997392E-2,-1.304223279E-2,-8.202006340E-2,8.547180578E-2
1.526814292E0,-3.007917367E-2,-2.058095656E-2,-1.119607311E-1,1.177435254E-1
1.536770292E0,7.875358947E-3,-1.427488066E-3,-1.019327563E-1,1.022464953E-1
1.546726292E0,2.131977053E-2,-3.170433417E-3,-1.462441260E-1,1.478239786E-1
1.556683292E0,-4.557721876E-3,-5.752929300E-4,-1.264869690E-1,1.265703643E-1
1.566639292E0,4.141016398E-3,-1.068626169E-2,-9.370338500E-2,9.440163434E-2
1.576595292E0,2.515981978E-2,-2.531868132E-2,-1.380094922E-1,1.425505948E-1
1.586551292E0,1.863379721E-2,-4.065536153E-2,-1.351642370E-1,1.423708109E-1
1.596507292E0,-6.407981906E-3,-6.423440482E-3,-1.281271130E-1,1.284479657E-1
1.606463292E0,1.456839262E-2,-4.825926349E-3,-1.221383947E-1,1.230988022E-1
1.616420292E0,2.706685262E-2,1.539498791E-3,-1.169027978E-1,1.200052028E-1
1.626376292E0,-1.166446432E-2,4.226440564E-5,-1.164519775E-1,1.170347153E-1
1.636332292E0,-5.281095542E-3,5.344263744E-3,-9.504298210E-2,9.533949639E-2
1.646288292E0,2.960335650E-4,2.313598881E-2,-1.020783520E-1,1.046678153E-1
1.656244292E0,-1.719127083E-2,1.902987298E-2,-9.953656733E-2,1.027871786E-1
1.666201292E0,-3.016589519E-2,2.093990251E-2,-9.714271724E-2,1.038516647E-1
1.676157292E0,-1.145593800E-2,2.537874319E-2,-9.624341547E-2,1.001903895E-1
1.686113292E0,-1.534998262E-2,-1.141519021E-2,-1.197451293E-1,1.212634510E-1
1.696069292E0,-4.806952134E-2,-2.375003781E-2,-1.116613537E-1,1.238668684E-1
1.706025292E0,-5.085639568E-2,9.226906300E-4,-8.366722405E-2,9.791541615E-2
1.715982292E0,-3.250936786E-2,-1.168069035E-2,-1.058194005E-1,1.113150621E-1
1.725938292E0,-1.575482922E-2,-2.307152325E-2,-8.755269885E-2,9.190203972E-2
1.735894292E0,-4.065066548E-2,-2.026025506E-2,-1.158421129E-1,1.244280903E-1
1.745850292E0,-2.099603578E-2,-2.257741526E-2,-1.227237010E-1,1.265372672E-1
1.755806292E0,-3.748503774E-3,-2.887108410E-2,-1.376931578E-1,1.407373315E-1
1.765762292E0,-2.876846546E-2,-1.697391886E-3,-1.276657677E-1,1.308780118E-1
1.775719292E0,-7.391574942E-3,2.609725635E-2,-1.125495458E-1,1.157717687E-1
1.785675292E0,2.816114075E-2,2.086752495E-2,-1.457821959E-1,1.499364935E-1
1.795631292E0,9.106124751E-3,7.075149212E-3,-1.308144933E-1,1.313217838E-1
1.805587292E0,-2.202189323E-3,2.272761561E-2,-8.620666981E-2,8.917950476E-2
1.815543292E0,1.847248714E-2,4.896111209E-3,-1.085102892E-1,1.101802503E-1
1.825500333E0,2.470267715E-2,-5.988645181E-3,-7.048818469E-2,7.493110376E-2
1.835456333E0,-1.475347526E-2,-1.798506690E-2,-9.818059802E-2,1.008987487E-1
1.845412333E0,-1.943214314E-2,-2.829781942E-2,-7.752355456E-2,8.478370293E-2
1.855368333E0,-9.040106032E-3,-2.788577344E-2,-1.173407543E-1,1.209470648E-1
1.865324333E0,-1.718270101E-2,-4.149112964E-2,-1.219834435E-1,1.299873822E-1
1.875281333E0,-3.198626133E-2,-1.191583978E-2,-8.127045035E-2,8.814757088E-2
1.885237333E0,-2.785489284E-2,5.711998791E-4,-1.227348107E-1,1.258572806E-1
1.895193333E0,-1.862118915E-2,1.958470065E-3,-1.243843102E-1,1.257856944E-1
1.905149333E0,-4.165894473E-2,7.196771298E-3,-9.983302116E-2,1.084153739E-1
1.915105333E0,-3.430822721E-2,1.817416951E-2,-1.091154760E-1,1.158168468E-1
1.925062333E0,8.282946423E-5,1.980733339E-2,-1.384562194E-1,1.398658715E-1
1.935018333E0,-1.560899600E-2,1.769343702E-2,-1.130091369E-1,1.154459332E-1
1.944974333E0,-2.226844473E-2,1.943110161E-2,-8.307256222E-2,8.817313612E-2
1.954930333E0,-8.055672459E-3,1.515178028E-3,-1.240884411E-1,1.243588792E-1
1.964886333E0,7.424776163E-3,-2.655257173E-3,-1.139113623E-1,1.141839575E-1
1.974842333E0,-3.077473652E-2,1.504389916E-2,-1.043312842E-1,1.098108381E-1
1.984799333E0,-1.054735377E-2,1.144077178E-2,-1.207947046E-1,1.217928511E-1
1.994755333E0,6.278064083E-3,-1.076645991E-2,-1.243866491E-1,1.250094766E-1
2.004711333E0,-1.335198903E-2,-2.507810494E-2,-1.242381299E-1,1.274452819E-1
2.014667333E0,-1.101408949E-2,-4.249409158E-3,-6.855392575E-2,6.956298140E-2
2.024623333E0,1.839038858E-2,-3.597152252E-3,-1.366646326E-1,1.379433496E-1
2.034580333E0,9.954007566E-3,-1.207532259E-2,-1.119695020E-1,1.130577952E-1
2.044536333E0,-7.231123690E-3,-6.032188665E-3,-7.888595581E-2,7.944602239E-2
2.054492333E0,-6.035313271E-3,-4.301522467E-3,-9.864311278E-2,9.892113930E-2
2.064448333E0,1.934799805E-2,-2.155506615E-2,-1.249859887E-1,1.282983370E-1
2.074404333E0,-4.158101231E-4,-9.284830280E-3,-8.965945065E-2,9.013988053E-2
2.084360333E0,-7.115129549E-3,2.189436911E-2,-5.567777216E-2,6.024950440E-2
2.094317333E0,2.424657606E-3,-3.598285150E-3,-1.408489001E-1,1.409157169E-1
2.104273333E0,-1.635972368E-2,-7.532931380E-3,-1.146504503E-1,1.160565008E-1
2.114229333E0,-2.734207375E-2,6.335092708E-5,-9.533885121E-2,9.918210303E-2
2.124185333E0,-1.640016083E-2,-1.371948654E-2,-1.167443383E-1,1.186862676E-1
2.134141333E0,-1.192468369E-2,-2.035008291E-2,-1.408424681E-1,1.428037982E-1
2.144098333E0,-4.372732418E-2,-1.213925824E-2,-1.133020824E-1,1.220524574E-1
2.154054333E0,-3.417809011E-2,-4.975286163E-3,-8.036939442E-2,8.747648184E-2
2.164010333E0,-2.969196009E-2,-1.340044783E-2,-1.354536742E-1,1.393157649E-1
2.173966333E0,-2.463161521E-2,-2.936963232E-2,-1.133003283E-1,1.196087629E-1
2.183922333E0,-3.322071819E-2,-4.564007632E-3,-8.979744494E-2,9.585419866E-2
2.193879333E0,-2.685183953E-2,6.581607666E-3,-1.062661278E-1,1.098035918E-1
2.203835333E0,-2.108484037E-2,8.761522751E-3,-1.396508056E-1,1.415050610E-1
2.213791333E0,-1.145213731E-2,1.998371830E-2,-1.058217394E-1,1.082993120E-1
2.223747333E0,-8.736160453E-3,5.310258530E-3,-9.519442499E-2,9.574182938E-2
2.233703333E0,-5.574771948E-4,-2.403516266E-3,-1.222874987E-1,1.223123870E-1
2.243659333E0,-3.861861186E-2,2.397765895E-2,-1.100130236E-1,1.190344096E-1
2.253616333E0,-4.673642926E-3,4.120470744E-2,-7.992559075E-2,9.004316138E-2
2.263572333E0,7.656965442E-3,-2.008315751E-2,-1.020789367E-1,1.043171685E-1
2.273528333E0,-1.919512991E-3,-2.337979943E-2,-1.552184325E-1,1.569810860E-1
2.283484333E0,1.023191476E-2,-1.622808823E-2,-8.561259270E-2,8.773573363E-2
2.293440333E0,-1.375497183E-2,-3.353637647E-2,-4.249873281E-2,5.585722949E-2
2.303397333E0,3.288430229E-2,-4.675013367E-3,-1.399484289E-1,1.438360032E-1
2.313353333E0,1.691910122E-3,-2.607046880E-2,-9.803500235E-2,1.014563630E-1
2.323309333E0,-9.092292432E-3,-4.501182955E-2,-5.058133900E-2,6.831695570E-2
2.333265333E0,2.984555913E-2,-1.777650403E-2,-1.727273351E-1,1.761859636E-1
2.343221333E0,8.203004021E-3,-8.232167009E-3,-1.427913451E-1,1.432634848E-1
2.353177333E0,-2.998644048E-2,-1.840557307E-3,-8.740885735E-2,9.242771558E-2
2.363134333E0,2.246171348E-3,1.125430042E-2,-7.887952387E-2,7.970999843E-2
2.373090333E0,-1.612106591E-2,1.235237097E-2,-1.574678564E-1,1.587721501E-1
2.383046333E0,-1.274141181E-2,4.696796073E-2,-1.290269995E-1,1.378995994E-1
2.393002333E0,-1.313801749E-2,3.541415496E-2,-1.061252099E-1,1.126469265E-1
2.402958333E0,-4.765248695E-2,2.470530840E-2,-1.210929126E-1,1.324560502E-1
2.412915333E0,-2.932859218E-2,-4.255347736E-3,-1.044762951E-1,1.085982069E-1
2.422871333E0,-3.192285558E-2,-1.279608328E-3,-1.296228307E-1,1.335020013E-1
2.432827333E0,-4.026679577E-2,1.250788864E-2,-1.040272290E-1,1.122476124E-1
2.442783333E0,-2.667733669E-2,-2.578141535E-2,-9.714447141E-2,1.039875473E-1
2.452739333E0,-3.600967560E-2,-2.810738292E-2,-1.306759143E-1,1.384301856E-1
2.462696333E0,-2.513548074E-2,-2.231726898E-2,-8.546758175E-2,9.183986290E-2
2.472652333E0,-1.513425691E-2,-2.591553586E-2,-1.052282470E-1,1.094241505E-1
2.482608333E0,-7.507788353E-3,-1.391169548E-2,-7.858423948E-2,8.015849832E-2
2.492564333E0,-4.068309925E-2,-1.346202632E-2,-8.037933469E-2,9.108884763E-2
2.502520333E0,-3.189254142E-3,-1.305478603E-2,-9.549497187E-2,9.643592916E-2
2.512477333E0,9.670015611E-4,1.054015439E-2,-1.058211547E-1,1.063491736E-1
2.522433333E0,-1.425894700E-2,1.819395868E-2,-1.237826318E-1,1.259225064E-1
2.532389333E0,1.771450527E-3,9.927457552E-3,-1.050709569E-1,1.055537704E-1
2.542345333E0,1.227425583E-2,2.315490089E-2,-1.164490539E-1,1.193615891E-1
2.552301333E0,2.733533118E-2,2.052423857E-2,-1.113631457E-1,1.164912654E-1
2.562257333E0,3.237884704E-2,-5.379072949E-4,-1.311226416E-1,1.350623049E-1
2.572214333E0,1.296042658E-2,7.484216765E-3,-1.023853308E-1,1.034733885E-1
2.582170333E0,2.158799328E-2,1.924899738E-2,-1.230464673E-1,1.264001522E-1
2.592126333E0,4.374247212E-3,5.517377872E-3,-1.429562366E-1,1.431295255E-1
2.602082333E0,-5.224359278E-3,-1.185053369E-2,-9.999498904E-2,1.008301885E-1
2.612038333E0,-1.251883389E-2,-3.093412796E-2,-1.053826135E-1,1.105402040E-1
2.621994333E0,-3.446586449E-2,-1.231251854E-2,-1.121145129E-1,1.179370931E-1
2.631951333E0,-2.968627732E-2,4.325861502E-3,-8.532081664E-2,9.044130633E-2
2.641907333E0,-1.499322938E-2,-6.001965869E-3,-1.023859155E-1,1.036518028E-1
2.651863333E0,-3.715070492E-2,-3.879744530E-2,-1.221442419E-1,1.334340004E-1
2.661819333E0,-5.111042066E-2,-3.282838829E-2,-1.098685974E-1,1.255431674E-1
2.671775333E0,-4.726317203E-2,-3.254636977E-2,-1.020836145E-1,1.171073779E-1
2.681732333E0,-4.268259119E-2,-1.552594727E-2,-1.019315869E-1,1.115925940E-1
2.691688333E0,-4.401813179E-2,2.437430117E-3,-1.044762951E-1,1.133967955E-1
2.701644333E0,-5.165709877E-2,5.162634607E-3,-1.311214721E-1,1.410246400E-1
2.711600333E0,-2.619110417E-2,1.535303414E-2,-1.240866870E-1,1.277466065E-1
2.721556333E0,-7.599534821E-3,7.142885551E-3,-1.020836145E-1,1.026149993E-1
2.731513333E0,-2.528237376E-2,9.135269467E-3,-1.077729553E-1,1.110750263E-1
2.741469333E0,-1.064960696E-3,2.338138914E-2,-1.254362243E-1,1.276012142E-1
2.751425333E0,9.465527516E-3,2.060171418E-2,-1.127156067E-1,1.149731918E-1
2.761381333E0,1.762387343E-2,2.176985996E-2,-9.295728028E-2,9.708544522E-2
2.771337333E0,1.743411301E-2,1.677151384E-2,-9.804435790E-2,1.009847914E-1
2.781293333E0,2.357515125E-2,1.404457346E-2,-1.083717102E-1,1.117920631E-1
2.791250333E0,2.770662937E-2,8.636538517E-3,-9.729591429E-2,1.015319755E-1
2.801206333E0,7.113411929E-3,-7.381287497E-3,-1.014860290E-1,1.020024417E-1
2.811162333E0,1.362004733E-2,-2.181970747E-2,-1.177985913E-1,1.205740993E-1
2.821119292E0,2.097235456E-2,-3.265240537E-2,-1.055229467E-1,1.124326977E-1
2.831075292E0,-3.701013420E-3,-3.199457534E-2,-1.109099865E-1,1.154918848E-1
2.841032292E0,-6.761939451E-3,-2.059672577E-2,-1.162976110E-1,1.183008168E-1
2.850988292E0,-1.177227236E-2,-1.902969025E-2,-1.248333764E-1,1.268230554E-1
2.860944292E0,-2.641830504E-2,-2.715545621E-2,-1.233359045E-1,1.290236063E-1
2.870900292E0,-2.731945233E-2,-1.101827390E-2,-1.005820495E-1,1.048069822E-1
2.880856292E0,-4.371308986E-2,-3.877946511E-3,-1.179436022E-1,1.258434186E-1
2.890813292E0,-2.455138044E-2,-8.628480323E-4,-9.608671010E-2,9.917747045E-2
2.900769292E0,-3.072852524E-2,-7.194998860E-4,-1.047680712E-1,1.091838298E-1
2.910725292E0,-3.974246498E-2,1.156392876E-2,-1.242270201E-1,1.309409810E-1
2.920681292E0,-2.473295476E-2,1.584966375E-2,-1.095569408E-1,1.134268670E-1
2.930637292E0,-1.723994890E-2,2.391017843E-2,-1.192861229E-1,1.228742918E-1
2.940593292E0,-2.214015316E-2,1.351728251E-2,-1.067111009E-1,1.098187706E-1
2.950550292E0,-1.594254311E-2,-1.180297025E-3,-1.052147985E-1,1.064223266E-1
2.960506292E0,-1.583371181E-3,-3.737521973E-3,-1.171893114E-1,1.172595874E-1
2.970462292E0,4.071288351E-3,-6.287931260E-3,-1.189849913E-1,1.192205587E-1
2.980418292E0,-1.577249877E-3,-2.132605629E-2,-1.323061180E-1,1.340231221E-1
2.990374292E0,6.523172054E-3,-9.102835692E-3,-1.224254930E-1,1.229366289E-1
3.000331292E0,1.366521707E-2,1.599962655E-3,-1.062602806E-1,1.071473064E-1
3.010287292E0,-5.237515513E-3,-1.807977352E-3,-1.152416039E-1,1.153747269E-1
3.020243292E0,-2.396919876E-3,-6.401422061E-3,-1.055130064E-1,1.057341854E-1
3.030199292E0,-2.548216581E-3,-1.732720032E-2,-1.020701659E-1,1.035617885E-1
3.040155292E0,2.140835585E-2,2.101818211E-3,-1.113543749E-1,1.134131039E-1
3.050111292E0,6.023801565E-3,-7.423734628E-3,-1.011778808E-1,1.016285471E-1
3.060068292E0,-6.141951866E-3,-1.720524933E-3,-1.260256237E-1,1.261869312E-1
3.070024292E0,-6.812097598E-3,-9.389568530E-3,-1.350046080E-1,1.355020770E-1
3.079980292E0,-9.325486701E-3,-8.525861688E-3,-1.097072142E-1,1.104324584E-1
3.089936292E0,-2.252822556E-2,-1.460703906E-2,-1.065602428E-1,1.098907270E-1
3.099892292E0,-2.593733501E-2,-1.759664733E-3,-1.103001219E-1,1.133223661E-1
3.109849292E0,-3.943166720E-2,1.399256978E-3,-1.150901610E-1,1.216657694E-1
3.119805292E0,-2.259373264E-2,-3.257465567E-3,-1.047593004E-1,1.072175305E-1
3.129761292E0,-3.382416911E-2,2.709654551E-3,-1.194282103E-1,1.241552015E-1
3.139717292E0,-1.690388018E-2,-8.980592340E-4,-1.180810118E-1,1.192881931E-1
3.149673292E0,-2.777409162E-2,-1.052062104E-2,-9.996867657E-2,1.042871992E-1
3.159629292E0,-1.541252956E-2,2.653247193E-3,-1.141879356E-1,1.152539389E-1
3.169586292E0,-9.565222543E-3,1.429154523E-2,-1.152345872E-1,1.165107370E-1
3.179542292E0,-4.744814504E-3,2.094507365E-2,-1.084968406E-1,1.106018707E-1
3.189498292E0,-1.232737413E-2,5.255952515E-3,-9.143408060E-2,9.241093163E-2
3.199454292E0,-7.152679637E-3,-1.268747125E-2,-1.084980100E-1,1.094712334E-1
3.209410292E0,-6.208573580E-3,-1.597753504E-2,-8.918933451E-2,9.082161308E-2
3.219367292E0,-5.481106862E-3,-5.127277225E-3,-9.816831887E-2,9.845481366E-2
3.229323292E0,-1.959906287E-2,-1.141573839E-2,-1.179289842E-1,1.200903312E-1
3.239279292E0,1.122025866E-3,-1.895977948E-2,-1.227225316E-1,1.241835413E-1
3.249235292E0,-1.554281283E-3,-2.733269993E-2,-1.338000816E-1,1.365721572E-1
3.259191292E0,-9.468981028E-3,-6.374543142E-3,-1.070063853E-1,1.076134885E-1
3.269147292E0,-1.536748772E-2,-3.862195574E-3,-1.266132689E-1,1.276009251E-1
3.279104292E0,-8.255884778E-3,-1.024963913E-2,-1.260145140E-1,1.266999308E-1
3.289060292E0,-1.961242011E-2,5.582263693E-4,-1.125436985E-1,1.142411604E-1
3.299016292E0,-2.229258277E-2,2.790894303E-3,-9.742513776E-2,9.998202741E-2
3.308972292E0,-1.202236874E-2,5.045178663E-3,-1.257157212E-1,1.263900065E-1
3.318928292E0,-3.794861231E-3,8.979495987E-3,-1.092482078E-1,1.096822831E-1
3.328885292E0,-2.370929003E-2,1.092135631E-2,-9.951785624E-2,1.028844506E-1
3.338841292E0,-2.030096630E-2,5.030140355E-3,-1.083518296E-1,1.103519394E-1
3.348797292E0,-1.539575536E-2,1.684202760E-2,-9.817182720E-2,1.007888428E-1
3.358753292E0,-1.550266804E-2,-9.490469545E-3,-9.637673199E-2,9.807586960E-2
3.368709292E0,-3.622870864E-2,-1.639416743E-2,-8.634583354E-2,9.506256374E-2
3.378666292E0,-4.095126718E-2,6.262532417E-3,-1.198720139E-1,1.268287243E-1
3.388622292E0,-2.012982560E-2,-3.989610057E-3,-1.037079710E-1,1.057188257E-1
3.398578292E0,-1.611021202E-2,-1.297842504E-2,-1.017614329E-1,1.038429953E-1
3.408534292E0,-2.130032854E-2,-1.525140222E-2,-1.017614329E-1,1.050794865E-1
3.418490292E0,-1.590583356E-2,-4.442422092E-3,-1.080495286E-1,1.093043059E-1
3.428446292E0,-1.601260006E-2,-3.991747946E-3,-1.064035374E-1,1.076756713E-1
3.438403292E0,-5.539085660E-3,-1.012277283E-2,-8.829120219E-2,8.904205963E-2
3.448359292E0,-1.941361478E-2,-2.603984401E-3,-1.315529966E-1,1.330032334E-1
3.458315292E0,-1.316683330E-3,-8.620440401E-4,-1.022122532E-1,1.022243683E-1
3.468271292E0,7.222480774E-3,1.095444789E-2,-1.041582066E-1,1.049814086E-1
3.478227292E0,-1.355708012E-2,1.922964675E-2,-1.161350584E-1,1.184944114E-1
3.488184292E0,-6.414194573E-3,6.779225282E-3,-1.186821055E-1,1.190484858E-1
3.498140292E0,1.257732432E-2,1.952750757E-3,-1.038617527E-1,1.046387405E-1
3.508096292E0,-8.578322176E-3,-1.050761098E-2,-1.058088756E-1,1.066748126E-1
3.518052292E0,-1.235774310E-2,3.144924939E-3,-1.131436229E-1,1.138599305E-1
3.528008292E0,-1.309505872E-2,-4.937754348E-3,-1.055071592E-1,1.064313047E-1
3.537964292E0,-1.459134294E-2,-9.106672928E-4,-1.171822947E-1,1.180907566E-1
3.547921292E0,-7.469927631E-3,-1.018564867E-2,-1.032670909E-1,1.040367210E-1
3.557877292E0,-1.947961522E-2,-2.907272168E-3,-1.186867833E-1,1.203098507E-1
3.567833292E0,-1.942200188E-2,-3.052867837E-3,-1.061141002E-1,1.079200464E-1
3.577789292E0,-1.028057456E-2,-4.546794891E-3,-9.249710441E-2,9.317766836E-2
3.587745292E0,-7.519263513E-3,-7.726455946E-3,-1.157000256E-1,1.162012623E-1
3.597701292E0,-1.504342407E-2,-1.629820000E-3,-1.044716173E-1,1.055617343E-1
3.607658292E0,-6.705568638E-3,2.147408221E-3,-1.194434130E-1,1.196507623E-1
3.617614292E0,-4.326866493E-3,-8.009844907E-3,-1.001335680E-1,1.005465606E-1
3.627570292E0,-9.115644749E-3,-1.871794229E-2,-1.185476196E-1,1.203619311E-1
3.637526292E0,-3.403390143E-3,-2.665964887E-3,-1.055229467E-1,1.056114706E-1
3.647482292E0,-1.071597286E-2,-1.422828566E-3,-1.159964794E-1,1.164990976E-1
3.657439292E0,-1.817917619E-2,2.093979288E-3,-1.135997057E-1,1.150641575E-1
3.667395292E0,-1.900352396E-2,-4.880177546E-3,-1.146463573E-1,1.163131003E-1
3.677351292E0,-9.613717888E-3,-6.507475935E-3,-9.908106923E-2,9.975885472E-2
3.687307292E0,-1.201156966E-2,-7.139633037E-3,-8.845492423E-2,8.955180504E-2
3.697263292E0,-4.987053685E-3,8.392947167E-3,-1.065660900E-1,1.070123535E-1
3.707219292E0,-1.579007696E-2,6.404839028E-3,-1.147978002E-1,1.160555187E-1
3.717176292E0,-1.965444697E-2,8.571415152E-3,-1.234779918E-1,1.253258988E-1
3.727132292E0,-8.662357628E-3,2.817627043E-4,-1.128471690E-1,1.131795008E-1
3.737088292E0,-2.531316301E-2,1.801728141E-3,-1.347011375E-1,1.370707806E-1
3.747044292E0,-1.259302044E-2,1.985937361E-2,-1.071572435E-1,1.097071270E-1
3.757000292E0,-1.336319011E-2,8.747800067E-3,-1.116467357E-1,1.127833873E-1
3.766957292E0,-1.163789604E-2,-9.600397199E-5,-1.375411302E-1,1.380326495E-1
3.776913292E0,3.514651693E-3,4.621712342E-3,-1.144849741E-1,1.146321173E-1
3.786869292E0,-1.244585333E-2,8.064918369E-3,-9.502660990E-2,9.617691387E-2
3.796825292E0,-2.868620245E-2,-1.278901180E-2,-9.008688211E-2,9.540494412E-2
3.806781292E0,-9.616623223E-3,-9.940303154E-3,-1.098469627E-1,1.107142461E-1
3.816737292E0,-3.826966099E-3,-1.383264843E-2,-9.188607037E-2,9.300020301E-2
3.826694167E0,-2.065170787E-2,-1.311550571E-2,-9.503011823E-2,9.812865483E-2
3.836650167E0,-2.080298631E-2,-1.249248488E-2,-1.128436607E-1,1.154232134E-1
3.846606167E0,-1.918274112E-2,-1.191253245E-2,-1.052089512E-1,1.076048763E-1
3.856562167E0,5.222678203E-3,-8.115259241E-3,-1.179336619E-1,1.183278599E-1
3.866518167E0,-1.292965561E-3,-2.471691146E-3,-1.022169310E-1,1.022549852E-1
3.876475167E0,-1.828998093E-2,5.646034889E-4,-1.373961192E-1,1.386092918E-1
3.886431167E0,4.113698937E-4,1.451662648E-3,-1.153912926E-1,1.154011566E-1
3.896387167E0,-1.638024375E-2,6.023143753E-3,-1.170378685E-1,1.183319623E-1
3.906343167E0,-3.124684436E-2,-6.731643565E-3,-1.058123839E-1,1.105347949E-1
3.916299167E0,-2.079951452E-2,1.054905312E-2,-1.324540526E-1,1.344915550E-1
3.926255167E0,-2.135037705E-3,5.283142067E-3,-9.952136457E-2,9.968436177E-2
3.936212167E0,-1.654732794E-2,-1.044692785E-2,-9.233513653E-2,9.438606784E-2
3.946168167E0,-3.831508655E-2,-1.094821695E-2,-1.156836534E-1,1.223544726E-1
3.956124167E0,-1.591922734E-2,5.996502377E-4,-1.056545091E-1,1.068487560E-1
3.966080167E0,-1.486345774E-2,7.907865811E-3,-1.019117063E-1,1.032930424E-1
3.976036167E0,-2.279407287E-2,-8.755547628E-3,-1.219682407E-1,1.243884284E-1
3.985993167E0,-1.976861386E-2,2.162409984E-3,-1.099937278E-1,1.117769845E-1
3.995949167E0,-4.544054009E-3,-1.568460781E-2,-9.651998878E-2,9.789159097E-2
4.005905167E0,-6.755525786E-3,-6.886466872E-3,-9.442434669E-2,9.491584589E-2
4.015861167E0,-1.923551224E-2,6.092305351E-3,-1.072952378E-1,1.091759551E-1
4.025817167E0,-6.585682444E-3,-1.348185204E-3,-1.183722031E-1,1.185629254E-1
4.035773167E0,3.688551541E-3,-8.527140766E-3,-1.041535288E-1,1.045670842E-1
4.045730167E0,-8.334091287E-3,-1.395854630E-2,-9.891500831E-2,1.002420918E-1
4.055686167E0,-9.876093417E-3,-1.495056298E-2,-1.137336069E-1,1.151363969E-1
4.065642167E0,2.818083856E-3,-5.960158277E-3,-1.129845786E-1,1.131767648E-1
4.075598167E0,-1.842695195E-3,-6.013861299E-3,-1.063965207E-1,1.065822766E-1
4.085554167E0,-1.459041104E-2,-1.136037257E-2,-1.230125535E-1,1.243946400E-1
4.095511167E0,-2.108509619E-2,-3.046088722E-3,-1.101434165E-1,1.121848124E-1
4.105467167E0,-4.030887745E-3,3.118046019E-3,-1.076022166E-1,1.077228262E-1
4.115423167E0,-1.618967934E-2,-1.106161639E-2,-1.004177427E-1,1.023141639E-1
4.125379167E0,-2.031880030E-2,-8.884259462E-3,-1.263127220E-1,1.282446390E-1
4.135335167E0,-9.934419394E-3,-7.963743266E-3,-1.243655992E-1,1.250156636E-1
4.145291167E0,-1.728965024E-2,1.436469024E-2,-1.317009312E-1,1.336054326E-1
4.155248167E0,-2.034957128E-2,2.794347815E-3,-1.451705772E-1,1.466165404E-1
4.165204167E0,-7.622064874E-3,1.025375046E-2,-1.539987034E-1,1.545277836E-1
4.175160167E0,-2.072666187E-2,7.743577324E-3,-1.589337534E-1,1.604664933E-1
4.185116167E0,-1.138929801E-2,1.494202970E-2,-1.128272885E-1,1.143808436E-1
4.195072167E0,-1.724418813E-2,1.464219544E-2,-1.340825021E-1,1.359774735E-1
4.205028167E0,-1.187695580E-2,4.995184969E-3,-8.933025241E-2,9.025468380E-2
4.214985167E0,-5.016929302E-3,-6.248955913E-3,-3.350513041E-2,3.445014940E-2
4.224941167E0,-3.901773915E-3,-2.246357728E-2,-2.123708725E-2,3.115846624E-2
4.234897167E0,1.366731841E-3,-4.352446234E-2,-3.232282341E-2,5.423109524E-2
4.244853167E0,2.798404321E-3,-4.310521698E-2,2.996113300E-3,4.329974009E-2
4.254809167E0,-8.074018098E-3,-3.181186812E-2,-4.057265997E-2,5.218549088E-2
4.264766167E0,-8.150762804E-3,-2.206963940E-2,-6.962045789E-2,7.348817642E-2
4.274722167E0,-2.428990027E-2,1.745211147E-3,-1.024057961E-1,1.052615413E-1
4.284678167E0,-1.524246695E-2,2.017762659E-2,-1.351893800E-1,1.375341336E-1
4.294634167E0,-2.414795911E-2,1.305337904E-2,-1.664778310E-1,1.687257623E-1
4.304590167E0,-3.043481229E-2,1.592845498E-2,-2.176719582E-1,2.203657752E-1
4.314546167E0,-2.224275352E-2,2.113795867E-2,-2.477576369E-1,2.496505558E-1
4.324503167E0,-3.311380550E-2,1.593236530E-2,-2.336822194E-1,2.365538925E-1
4.334459167E0,-3.403859748E-2,1.734859748E-2,-2.517922157E-1,2.546741444E-1
4.344415167E0,-3.951279731E-2,-2.074043937E-3,-2.067312330E-1,2.104836467E-1
4.354371167E0,-3.554979209E-2,-1.349511791E-2,-1.568848890E-1,1.614273035E-1
4.364327167E0,-2.991731543E-2,-2.353486028E-2,-1.234990418E-1,1.292321505E-1
4.374283167E0,-2.352100968E-2,-2.237667304E-2,-7.260546148E-2,7.953305243E-2
4.384240167E0,-5.885295644E-3,-2.963328693E-2,-6.291019320E-3,3.086009273E-2
4.394196167E0,6.602913458E-3,-1.580707043E-2,2.242407203E-3,1.727687275E-2
4.404152167E0,1.820811991E-2,-1.024359092E-2,-8.684284687E-3,2.262484444E-2
4.414108167E0,1.562231669E-2,-7.528929692E-3,-2.995528579E-3,1.759871452E-2
4.424064167E0,2.223354416E-2,1.502003521E-3,-2.948809326E-2,3.696125193E-2
4.434021167E0,1.628078626E-2,1.822792735E-2,-7.409240842E-2,7.801926892E-2
4.443977167E0,2.384750359E-3,2.413606368E-2,-1.005896509E-1,1.034722884E-1
4.453933167E0,1.375224922E-2,1.919794388E-2,-9.849400878E-2,1.012855131E-1
4.463889167E0,-5.119237304E-4,-2.811725009E-3,-1.701937366E-1,1.702177306E-1
4.473845167E0,-1.897372143E-2,-2.438340090E-2,-1.474398816E-1,1.506421954E-1
4.483801167E0,-1.884398634E-2,-9.130536877E-3,-1.552201867E-1,1.566262075E-1
4.493758167E0,-1.691983212E-2,-1.188804723E-2,-1.555172253E-1,1.568859896E-1
4.503714167E0,-2.223580996E-2,-1.036422629E-2,-1.648002648E-1,1.666162529E-1
4.513670167E0,-2.903191907E-2,-4.669513330E-3,-1.639009631E-1,1.665178140E-1
4.523626167E0,-1.298845667E-2,1.172586009E-3,-1.393525976E-1,1.399614998E-1
4.533582167E0,-1.141789455E-2,-4.677407071E-3,-1.357612377E-1,1.363207986E-1
4.543539167E0,-4.990032110E-3,7.263429556E-3,-1.115104955E-1,1.118581622E-1
4.553495167E0,-1.217090629E-2,1.089710863E-2,-1.118110424E-1,1.129981732E-1
4.563451167E0,8.676701579E-3,1.970398385E-2,-8.247205317E-2,8.523597647E-2
4.573407167E0,4.110442769E-2,1.970745564E-2,-7.153308213E-2,8.482298994E-2
4.583363167E0,6.889171209E-3,1.367347626E-2,-2.298967320E-1,2.304060156E-1
4.593319167E0,5.962186530E-2,7.950404305E-3,1.239644802E-1,1.377866760E-1
4.603276167E0,-3.981506182E-2,-3.454242647E-2,-2.947172105E-2,6.039040251E-2
4.613232167E0,-5.282919142E-2,-4.356106225E-2,-8.859467268E-2,1.119710036E-1
4.623188167E0,-8.343092345E-2,-3.749682354E-2,-8.724864364E-2,1.264082932E-1
4.633144167E0,-4.828654440E-2,-1.999977987E-2,-4.458911240E-2,6.870058595E-2
4.643100167E0,-5.187832452E-2,-1.129170433E-2,-1.212303221E-1,1.323467194E-1
4.653056167E0,-4.873995943E-2,1.749194562E-3,-1.574555773E-1,1.648359856E-1
4.663013167E0,-2.519499443E-2,-1.229614634E-3,-1.472802526E-1,1.494248055E-1
4.672969167E0,-2.252373051E-2,1.656463204E-2,-2.071551561E-1,2.090334045E-1
4.682925167E0,-1.441029852E-2,3.784467805E-2,-2.025159752E-1,2.065250507E-1
4.692881167E0,-4.216701295E-3,2.439281126E-2,-1.698820800E-1,1.716761804E-1
4.702837167E0,2.952655697E-2,2.255426394E-2,-1.156889158E-1,1.215090023E-1
4.712794167E0,3.246174959E-2,1.915091034E-3,-1.468212461E-1,1.503792242E-1
4.722750167E0,1.192358734E-2,-1.979138145E-2,-8.799299419E-2,9.097602839E-2
4.732706167E0,-1.850826479E-4,-1.895254355E-2,-4.457917213E-2,4.844105439E-2
4.742662167E0,-1.644586047E-2,-5.323122405E-3,-5.909488499E-2,6.157115714E-2
4.752618167E0,1.299377399E-2,8.472615480E-3,1.529807031E-2,2.178656308E-2
4.762574167E0,-2.892328877E-2,-2.282040361E-3,-4.308345437E-2,5.194177877E-2
4.772531167E0,-5.633492611E-2,-1.392603943E-2,-1.185271543E-1,1.319706209E-1
4.782487167E0,-6.733096233E-2,-1.453667147E-2,-1.586425620E-1,1.729515417E-1
4.792443167E0,-4.664539542E-2,-2.078500612E-2,-1.108930296E-1,1.220863358E-1
4.802399167E0,-4.176063146E-2,-2.091576448E-2,-1.674777049E-1,1.738683444E-1
4.812355167E0,-2.879580120E-2,-8.788511306E-3,-1.099989903E-1,1.140447893E-1
4.822311667E0,1.355980273E-2,2.059509952E-2,-8.604879498E-2,8.951213042E-2
4.832267667E0,3.292307664E-2,8.184932470E-3,-1.568527293E-1,1.604795962E-1
4.842223667E0,5.497959634E-2,2.142675631E-3,-8.814502180E-2,1.039080937E-1
4.852179667E0,8.372207824E-3,-1.688803788E-3,-1.827506322E-1,1.829501011E-1
4.862135667E0,-9.996728785E-3,-2.398933511E-2,-1.604423350E-1,1.625335831E-1
4.872091667E0,4.615397349E-2,-2.028947286E-2,-3.442659312E-1,3.479380453E-1
4.882048667E0,6.846981721E-2,-3.636366969E-2,-1.002797484E-1,1.267535415E-1
4.892004667E0,1.607602408E-2,4.442995850E-2,-1.267898548E-1,1.353075276E-1
4.901960667E0,-4.505685311E-2,9.946585257E-2,-2.635457039E-2,1.123304910E-1
4.911916667E0,-2.849859819E-2,9.023377514E-2,-6.587765515E-2,1.153003457E-1
4.921872667E0,9.485572502E-3,4.531424023E-2,1.272172862E-1,1.353794459E-1
4.931828667E0,-3.424659390E-3,2.261147529E-2,1.465265465E-1,1.483004920E-1
4.941785667E0,7.227012366E-3,-1.264904408E-2,-2.905890763E-2,3.250612460E-2
4.951741667E0,9.821473114E-2,6.309383232E-3,-1.031536549E-1,1.425714497E-1
4.961697667E0,8.692642551E-2,2.668336663E-2,-2.188718069E-1,2.370085934E-1
4.971653667E0,5.745704334E-2,1.400837554E-2,-1.983743924E-1,2.070022849E-1
4.981609667E0,-2.314236593E-2,4.409942636E-2,-2.828081864E-1,2.871598837E-1
4.991566667E0,-7.000710502E-2,6.489355048E-2,-2.769779277E-1,2.929657660E-1
5.001522667E0,-1.018452673E-1,5.996083936E-2,-1.045376909E-1,1.577843134E-1
5.011478667E0,-1.092706648E-1,5.502926113E-2,-1.542325920E-1,1.968654114E-1
5.021434667E0,-1.107907764E-1,1.026919076E-2,-1.045324284E-1,1.526665680E-1
5.031390667E0,-6.250196619E-2,-1.271910103E-2,-1.501564980E-2,6.552664380E-2
5.041346667E0,-5.040506372E-2,-6.767379189E-2,-9.629545569E-2,1.280360392E-1
5.051303667E0,-3.687394889E-2,-9.013230767E-2,-1.030326176E-1,1.417717929E-1
5.061259667E0,5.895966813E-3,-8.502418008E-2,-5.244426191E-2,1.000713457E-1
5.071215667E0,-1.525196867E-2,-1.175222190E-1,-2.340874314E-2,1.207976148E-1
5.081171667E0,-4.039141456E-2,-1.052610645E-1,-1.742353320E-2,1.140830294E-1
5.091127667E0,-3.463077424E-2,-6.518993123E-2,3.616210520E-2,8.219924276E-2
5.101083667E0,-3.677595321E-2,-9.764170401E-2,-1.407717168E-1,1.752228563E-1
5.111040667E0,-7.640428785E-3,-1.014378443E-1,-1.241527605E-1,1.605052035E-1
5.120996667E0,1.056253826E-2,-9.556276303E-2,-1.469036919E-1,1.755690849E-1
5.130952667E0,4.595335918E-2,-1.444621687E-1,-1.467563421E-1,2.109939652E-1
5.140908667E0,1.036574657E-1,-6.071032450E-2,-1.723566216E-1,2.100890733E-1
5.150864667E0,7.581578387E-2,8.060752228E-3,-1.415265924E-1,1.607569133E-1
5.160820667E0,6.151886651E-2,-1.271679869E-2,-5.351605654E-2,8.252427651E-2
5.170777667E0,4.800662722E-2,3.256259579E-3,-1.315126508E-1,1.400386262E-1
5.180733667E0,8.590181060E-3,3.909205360E-2,-3.167729080E-2,5.104341895E-2
5.190689667E0,-5.712674875E-2,5.511280322E-2,-1.785260189E-1,1.953776495E-1
5.200645667E0,-5.703626309E-2,7.239779396E-2,-1.223939180E-1,1.532150353E-1
5.210601667E0,-6.286677763E-2,1.015855048E-1,-2.063733834E-1,2.384571657E-1
5.220557667E0,-7.099055188E-2,9.587820204E-2,-1.914033419E-1,2.255383058E-1
5.230514667E0,-6.079878191E-2,1.188607197E-1,-1.770285469E-1,2.217283676E-1
5.240470667E0,-3.745715383E-2,1.306512098E-1,-1.556189668E-1,2.066156815E-1
5.250426667E0,-5.041217174E-2,5.278425923E-2,-5.157945871E-2,8.937564346E-2
5.260382667E0,-6.547194974E-2,2.347938482E-2,-9.797828436E-2,1.201565725E-1
5.270338667E0,-3.179617200E-2,-1.632191777E-2,-7.562204003E-3,3.653201997E-2
5.280295667E0,-2.781228125E-3,-3.661636077E-2,7.410176396E-3,3.746203171E-2
5.290251667E0,-2.118480949E-2,-6.013733391E-2,-9.408111513E-2,1.136510066E-1
5.300207667E0,-1.824762516E-2,-5.308968488E-2,-1.303075397E-1,1.418856771E-1
5.310163667E0,-3.275632136E-2,-4.966089590E-2,-1.285136139E-1,1.416154304E-1
5.320119667E0,2.309248187E-3,5.482787937E-3,-1.975212836E-1,1.976108577E-1
5.330075667E0,1.333355203E-2,9.846601523E-3,-1.773156452E-1,1.780886779E-1
5.340032667E0,2.437092075E-2,-2.348241806E-2,-1.496238166E-1,1.534035600E-1
5.349988667E0,5.185031271E-2,-1.191375671E-2,-1.743224555E-1,1.822600094E-1
5.359944667E0,5.456340250E-2,-2.852978943E-2,-1.886943269E-1,1.984859259E-1
5.369900667E0,5.415228842E-2,-1.372719755E-2,-1.036687946E-1,1.177630047E-1
5.379856667E0,6.561557198E-2,-3.032128494E-3,-1.389959174E-1,1.537350388E-1
5.389812667E0,3.554917082E-2,2.625215275E-2,-2.613354564E-2,5.134083441E-2
5.399769667E0,-2.602796685E-3,-9.682440944E-4,6.500349641E-3,7.068705162E-3
5.409725667E0,-4.270364117E-2,-4.609469734E-3,3.061602116E-3,4.306067333E-2
5.419681667E0,-3.727548815E-2,2.245106058E-2,-1.235341251E-2,4.523404624E-2
5.429637667E0,-4.049986213E-2,1.020847108E-2,-4.542994201E-2,6.171167917E-2
5.439593667E0,-6.890421052E-2,-1.440704601E-2,-9.212931454E-2,1.159446583E-1
5.449550667E0,-3.453071376E-2,-3.509407472E-2,-1.460125762E-1,1.540897034E-1
5.459506667E0,-3.921731193E-2,-5.429693392E-2,-1.611293828E-1,1.744959386E-1
5.469462667E0,-6.122718181E-2,-6.752852513E-2,-1.784979522E-1,2.004255185E-1
5.479418667E0,-6.051807901E-2,9.196884502E-3,-1.719163263E-1,1.824890238E-1
5.489374667E0,-5.281713154E-2,5.092517355E-2,-1.877845001E-1,2.016086337E-1
5.499330667E0,-9.145209733E-3,5.309991751E-2,-9.961842835E-2,1.132566438E-1
5.509287667E0,-2.232543681E-2,3.962199407E-2,-1.512604523E-1,1.579495235E-1
5.519243667E0,-9.580772482E-3,8.155002035E-3,-1.217711896E-1,1.224194342E-1
5.529199667E0,2.382522935E-2,1.463631168E-4,-1.100983930E-1,1.126468779E-1
5.539155667E0,3.134458423E-2,7.434716430E-3,-3.091247499E-2,4.464682608E-2
5.549111667E0,4.018126197E-2,1.452959999E-3,-7.238268256E-2,8.280034807E-2
5.559067667E0,2.974564483E-2,-3.020918285E-2,-5.427327096E-2,6.886934047E-2
5.569024667E0,5.700286087E-3,-4.216184182E-2,-5.457323313E-2,6.919791862E-2
5.578980667E0,-1.628648730E-2,-4.398421794E-2,-1.186394209E-1,1.275741874E-1
5.588936667E0,-1.681273671E-2,-4.462980537E-2,-1.508195722E-1,1.581803749E-1
5.598892667E0,-3.770419870E-2,-2.541841289E-2,-9.663225532E-2,1.067965125E-1
5.608848667E0,-3.014075216E-2,-1.402370621E-2,-6.983738959E-2,7.734591302E-2
5.618804667E0,-1.296846651E-2,-3.119701512E-2,-1.130974299E-1,1.180358569E-1
5.628761667E0,3.933878783E-3,-1.998534456E-2,-1.624952924E-1,1.637669364E-1
5.638717667E0,9.949110523E-3,-6.947552003E-3,-1.589039326E-1,1.593665996E-1
5.648673667E0,-1.727194414E-2,-2.148055069E-2,-1.684840107E-1,1.707237417E-1
5.658629667E0,-1.636231838E-2,2.633366659E-2,-1.499243635E-1,1.530963822E-1
5.668585667E0,5.254271440E-3,3.789114514E-2,-8.795557201E-2,9.591417464E-2
5.678541667E0,-9.591078199E-3,6.401745485E-2,-1.140014094E-1,1.310974624E-1
5.688498667E0,-3.140749661E-2,6.336656839E-2,-7.792584300E-2,1.052339766E-1
5.698454667E0,-1.527314655E-2,3.524630332E-2,-1.115297914E-2,3.999949809E-2
5.708410667E0,-2.078232005E-2,3.583992362E-2,-2.190641803E-1,2.229473481E-1
5.718366667E0,-1.636421872E-2,2.382502835E-2,-3.205443621E-3,2.908082700E-2
5.728322667E0,6.072022822E-3,9.058707487E-3,-1.799808061E-1,1.803108988E-1
5.738279667E0,9.024702273E-3,-2.454599004E-2,-1.772793925E-1,1.791980298E-1
5.748235667E0,9.687447622E-3,-1.041586451E-2,-8.761467934E-2,8.876186631E-2
5.758191667E0,-3.273589265E-2,-3.731517613E-2,-9.285261512E-2,1.052885045E-1
5.768147667E0,-5.162192412E-2,-6.576410953E-2,-1.497325748E-1,1.714922305E-1
5.778103667E0,-3.577437999E-2,-6.225492133E-2,-1.115619510E-1,1.326708348E-1
5.788059667E0,-4.561957452E-2,-5.190785296E-2,-7.832813144E-2,1.044550954E-1
5.798016667E0,-2.679426273E-2,-4.283637296E-2,-4.449906528E-2,6.732795983E-2
5.807972667E0,4.417169429E-3,-3.211837186E-2,-9.195038974E-2,9.749859163E-2
5.817928667E0,2.589329816E-3,-4.376608025E-2,-1.254794937E-1,1.329183124E-1
5.827884667E0,1.148369400E-2,-6.603191201E-2,-1.489788687E-1,1.633609254E-1
5.837840667E0,7.728246655E-3,-2.483676111E-2,-1.149983597E-1,1.179034063E-1
5.847796667E0,3.136534184E-2,1.525079923E-2,-1.004779691E-1,1.063587975E-1
5.857753667E0,2.987824872E-2,6.208136866E-2,-1.369973391E-1,1.533462651E-1
5.867709667E0,3.077950565E-2,4.718259009E-2,-1.179804397E-1,1.307400433E-1
5.877665667E0,-1.657192279E-3,3.346189756E-2,-1.166291481E-1,1.213457995E-1
5.887621667E0,-1.970106024E-2,6.655191220E-3,-1.109351295E-1,1.128672951E-1
5.897577667E0,-2.919847336E-2,-3.812168989E-2,-9.042426646E-2,1.023834071E-1
5.907533667E0,-3.644120011E-2,-3.087119730E-2,-1.100305653E-1,1.199488107E-1
5.917490667E0,-1.760613078E-2,-2.593799282E-2,-1.023917627E-1,1.070832778E-1
5.927446667E0,1.041350735E-2,-9.159900863E-3,-8.277903199E-2,8.393278893E-2
5.937402667E0,-1.289358560E-2,-2.306335542E-2,-7.498878658E-2,7.950774192E-2
5.947358667E0,-1.111131772E-2,-2.968730059E-2,-8.875430167E-2,9.424501717E-2
5.957314667E0,-5.728098733E-2,-1.414214887E-2,-1.182400560E-1,1.321431903E-1
5.967270667E0,-5.243916387E-2,8.900010400E-4,-9.174222887E-2,1.056754208E-1
5.977227667E0,-5.433479464E-2,4.710041843E-3,-1.317067784E-1,1.425522005E-1
5.987183667E0,-6.024764528E-2,-4.127882089E-2,-1.420317918E-1,1.597083270E-1
5.997139667E0,-5.888528058E-2,-3.390182745E-2,-9.098793805E-2,1.135588616E-1
6.007095667E0,-7.399097750E-2,-3.753713278E-2,-7.422046244E-2,1.113210588E-1
6.017051667E0,-4.518013800E-2,-2.586768005E-2,-1.360430735E-1,1.456643388E-1
6.027007667E0,-4.259093609E-3,-7.151382286E-3,-5.505855203E-2,5.568416560E-2
6.036964667E0,7.801117580E-3,3.243487068E-3,-8.424317479E-2,8.466575543E-2
6.046920667E0,1.524539055E-2,-3.418709848E-2,-1.107357395E-1,1.168913326E-1
6.056876667E0,3.809588905E-2,-3.295852538E-2,-1.348315305E-1,1.439343696E-1
6.066832667E0,5.141140608E-2,-1.428732427E-2,-2.200073361E-1,2.263857068E-1
6.076788667E0,2.478899667E-2,-2.754586749E-3,-1.583390915E-1,1.602914533E-1
6.086745667E0,7.884641401E-3,5.417854607E-2,-1.436736900E-1,1.537517857E-1
6.096701667E0,4.312559087E-3,7.908839738E-2,-8.768776953E-2,1.181639441E-1
6.106657667E0,4.142522056E-2,9.317393789E-2,-1.345380002E-1,1.688132255E-1
6.116613667E0,3.733412476E-2,7.127540264E-2,-1.972499728E-2,8.284380129E-2
6.126569667E0,4.791067807E-2,4.364948312E-2,-2.137098849E-2,6.824536320E-2
6.136525667E0,4.109017510E-2,4.070497150E-2,-1.069952756E-1,1.216276539E-1
6.146482667E0,4.182571828E-2,8.776743785E-3,-4.592344701E-2,6.273264642E-2
6.156438667E0,2.511344405E-2,2.324103769E-3,-6.494151592E-2,6.966697224E-2
6.166394667E0,4.806265086E-3,-1.366640478E-3,-5.925802231E-2,5.946832012E-2
6.176350667E0,-2.300523045E-2,5.502741560E-3,-6.270787954E-2,6.702088443E-2
6.186306667E0,-4.424290242E-2,1.610083820E-2,-2.828181267E-2,5.492296726E-2
6.196262667E0,-4.775687803E-2,1.142692119E-2,-1.234844238E-1,1.328897921E-1
6.206219667E0,-5.319323542E-2,3.119672276E-3,-1.302204162E-1,1.407004245E-1
6.216175667E0,-5.101025054E-2,-9.949859697E-3,-1.893433678E-1,1.963465210E-1
6.226131667E0,-3.764022650E-2,-4.980844673E-2,-2.528084618E-1,2.604031228E-1
6.236087667E0,-1.892771116E-2,-6.312193550E-2,-2.155359703E-1,2.253849851E-1
6.246043667E0,7.427754588E-3,-6.671832031E-2,-1.583554637E-1,1.719969729E-1
6.255999667E0,-2.244033460E-2,-5.231132912E-2,-1.869454247E-1,1.954191280E-1
6.265956667E0,-1.843005829E-2,-2.298719544E-2,-8.276090562E-2,8.784899375E-2
6.275912667E0,-1.568806132E-2,-1.587224862E-2,-4.339160264E-2,4.879420789E-2
6.285868667E0,1.379338073E-2,-3.092807975E-2,-7.212949812E-2,7.968354892E-2
6.295824667E0,2.521153109E-2,-1.321032196E-2,-6.344579816E-2,6.953778261E-2
6.305780667E0,4.773436625E-2,-2.710350735E-2,-6.838084817E-2,8.768757168E-2
6.315736667E0,3.418664167E-2,-2.465480307E-2,-1.614872324E-1,1.668973098E-1
6.325693667E0,-2.882777816E-2,-3.431584686E-4,-6.673193336E-2,7.269325609E-2
6.335649667E0,-3.055895599E-2,3.342323285E-3,-1.977066404E-1,2.000823245E-1
6.345605667E0,-6.491902241E-2,1.464765893E-2,-1.640272629E-1,1.770140570E-1
6.355561667E0,-4.171677735E-2,6.694491819E-2,-4.996855080E-2,9.337434151E-2
6.365517667E0,-7.187848812E-2,4.908538369E-2,-1.504096824E-1,1.737784926E-1
6.375473667E0,-5.477704514E-2,4.740725107E-2,-1.122390586E-1,1.335873437E-1
6.385430667E0,-5.791604977E-2,3.325660547E-2,-1.047540379E-1,1.242323592E-1
6.395386667E0,-3.483447662E-2,3.418918155E-2,5.120406747E-3,4.907707674E-2
6.405342667E0,9.476143867E-5,1.434957884E-2,-4.442539036E-2,4.668548706E-2
6.415298667E0,7.484143674E-3,-4.074431229E-3,-5.610169530E-2,5.674516377E-2
6.425254667E0,4.443374092E-2,-2.612135785E-2,-9.801570654E-2,1.107418683E-1
6.435210667E0,2.329492344E-2,-5.179476416E-2,-1.240644675E-1,1.364453853E-1
6.445167667E0,7.770072520E-3,-2.415122990E-2,-1.296064585E-1,1.320662335E-1
6.455123667E0,1.837598981E-2,-8.363637999E-3,-1.387386400E-1,1.401999916E-1
6.465079667E0,8.450469151E-3,1.890596682E-2,-7.661665142E-2,7.936597057E-2
6.475035667E0,-1.461803913E-7,-2.363097388E-3,-1.495162278E-1,1.495349010E-1
6.484991667E0,-1.052882541E-2,-2.544943968E-2,-1.644833457E-1,1.667732028E-1
6.494947667E0,-2.293972336E-2,-4.304970497E-2,-1.266097605E-1,1.356817580E-1
6.504904667E0,-3.836518988E-2,-4.606794633E-2,-9.262983620E-2,1.103377996E-1
6.514860667E0,-1.051724061E-2,-3.244532257E-2,-9.023481667E-2,9.646571125E-2
6.524816667E0,-2.123699589E-2,-2.982324835E-2,-1.319985545E-1,1.369819496E-1
6.534772667E0,3.109163733E-2,-1.400400840E-2,-9.098793805E-2,9.716793212E-2
6.544728667E0,-5.379109494E-3,-7.157759406E-3,-1.257198143E-1,1.260382483E-1
6.554685667E0,-3.230312560E-2,2.897154657E-2,-1.308109850E-1,1.378200139E-1
6.564641667E0,-2.049609885E-2,2.943513941E-2,-6.434919298E-2,7.367045634E-2
6.574597667E0,-3.135359259E-2,4.569374280E-2,-9.503245711E-2,1.100096987E-1
6.584553667E0,-3.673204428E-2,9.176528882E-3,-8.694692731E-2,9.483258895E-2
6.594509667E0,-1.907219220E-2,-1.852489281E-3,-1.171782017E-1,1.187346250E-1
6.604465667E0,4.263917562E-3,-1.585490797E-3,-1.143329465E-1,1.144234130E-1
6.614422667E0,-2.110249165E-2,-3.262969259E-2,-1.025075376E-1,1.096257600E-1
6.624378667E0,-2.768397141E-2,-2.260369118E-3,-1.655305821E-1,1.678448246E-1
6.634334667E0,-2.931318842E-2,8.325156011E-4,-1.418785948E-1,1.448775060E-1
6.644290667E0,-3.146869138E-2,-2.107427884E-3,-7.886256695E-2,8.493541226E-2
6.654246667E0,-6.455654986E-3,2.726701012E-2,-8.020684183E-2,8.496059556E-2
6.664202667E0,-2.398692314E-3,2.111332728E-2,-1.075998777E-1,1.096779832E-1
6.674159667E0,-5.819879919E-3,-1.313878493E-2,-4.936804175E-2,5.141694486E-2
6.684115667E0,4.292185195E-3,-1.885257443E-2,-1.372359055E-1,1.385912558E-1
6.694071667E0,1.376118449E-2,-8.958610464E-3,-1.423294151E-1,1.432734773E-1
6.704027667E0,3.505955787E-2,-2.818204455E-2,-1.707731956E-1,1.765980877E-1
6.713983667E0,1.280602355E-2,-1.445925068E-3,-1.119490367E-1,1.126883834E-1
6.723939667E0,1.465368887E-2,-3.004902396E-3,-9.024709582E-2,9.147840368E-2
6.733896667E0,3.272010516E-2,6.271686964E-4,-5.252436876E-2,6.188544204E-2
6.743852667E0,4.523643572E-3,-1.386811545E-2,-1.388947606E-1,1.396586643E-1
6.753808667E0,-1.816855984E-2,-1.584513215E-2,-7.976771593E-2,8.333098634E-2
6.763764667E0,-3.523049757E-2,-2.612042595E-2,-9.907522202E-2,1.083483467E-1
6.773720667E0,-1.714447483E-2,-9.780893438E-3,-1.504184532E-1,1.517079759E-1
6.783676667E0,-2.222956074E-2,-2.593698783E-2,-1.412880260E-1,1.453588215E-1
6.793633667E0,-6.313425120E-2,-2.779051865E-2,-1.251233983E-1,1.428779598E-1
6.803589667E0,-6.430292688E-2,-1.578273140E-2,-8.620550036E-2,1.086984329E-1
6.813545667E0,-2.181996329E-2,1.071434660E-2,-8.425954700E-2,8.769594792E-2
6.823501583E0,-3.198454371E-2,3.861883113E-2,-1.082044798E-1,1.192586878E-1
6.833457583E0,-1.501437072E-2,3.376810893E-2,-1.092493773E-1,1.153305811E-1
6.843413583E0,1.742430065E-2,2.119615674E-4,-1.351466954E-1,1.362654778E-1
6.853370583E0,2.466322672E-2,-1.884959601E-3,-1.586484092E-1,1.605650821E-1
6.863326583E0,2.529350175E-2,-1.428365149E-3,-1.990626097E-1,2.006681939E-1
6.873282583E0,2.480768949E-2,1.385357050E-2,-1.351449412E-1,1.380995945E-1
6.883238583E0,-9.610684644E-3,3.715211190E-2,-1.306572032E-1,1.361761705E-1
6.893194583E0,-1.467634683E-2,4.998963732E-2,-5.970708847E-2,7.924200534E-2
6.903150583E0,-2.323509911E-2,3.340399185E-2,1.695692539E-4,4.069060403E-2
6.913107583E0,-3.704344505E-2,-2.768879537E-2,-6.838669538E-2,8.255680660E-2
6.923063583E0,-9.904488958E-3,-4.590320103E-2,-5.685890973E-2,7.374373452E-2
6.933019583E0,-1.118279994E-2,-5.985076552E-2,-1.177828038E-1,1.325894340E-1
6.942975583E0,1.637454271E-2,-4.240488499E-2,-1.227248704E-1,1.308728152E-1
6.952931583E0,1.537466884E-2,-4.416970259E-2,-1.568556529E-1,1.636796839E-1
6.962887583E0,-1.395262599E-2,-2.786183640E-2,-1.535648400E-1,1.566943451E-1
6.972844583E0,-3.985527970E-2,-3.723444801E-2,-1.234750682E-1,1.349849618E-1
6.982800583E0,-3.770041628E-2,8.870463688E-3,-1.818519151E-1,1.859304320E-1
6.992756583E0,-3.930385072E-2,3.160193481E-2,-1.129927647E-1,1.237369785E-1
7.002712583E0,-2.001224175E-2,4.171250157E-2,-1.080506980E-1,1.175388274E-1
7.012668583E0,-1.168810900E-2,-1.635091631E-2,-1.171770322E-1,1.188882721E-1
7.022624583E0,-1.573964473E-2,-4.875454092E-2,-1.459125888E-1,1.546454825E-1
7.032581583E0,1.427848035E-2,-4.111528158E-2,-1.381276059E-1,1.448225704E-1
7.042537583E0,3.302173013E-2,-3.201805556E-2,-4.831788182E-2,6.670988118E-2
7.052493583E0,-4.959206320E-3,-7.277243603E-3,-7.601204932E-2,7.652047859E-2
7.062449583E0,-2.845063275E-2,3.172041401E-3,-9.248424053E-2,9.681340350E-2
7.072405583E0,-3.582360623E-2,-1.609195774E-2,9.597619772E-3,4.042766593E-2
7.082361583E0,-1.860825218E-2,1.999932306E-2,-1.317120409E-1,1.345150612E-1
7.092318583E0,4.857537858E-3,-5.248131864E-3,2.081491828E-2,2.200907506E-2
7.102274583E0,3.251424663E-2,1.959347147E-3,-4.699933469E-2,5.718350056E-2
7.112230583E0,2.963043641E-2,-1.185670981E-2,-9.370572388E-2,9.899144922E-2
7.122186583E0,1.290151589E-2,-5.328607824E-2,-1.850199366E-1,1.929721021E-1
7.132142583E0,3.267276099E-2,-5.521516604E-2,-1.878704542E-1,1.985233775E-1
7.142098583E0,2.698276235E-2,-4.519259987E-2,-8.908057630E-2,1.034687857E-1
7.152055583E0,-6.287456173E-3,-1.619751826E-3,-9.208370626E-2,9.231232128E-2
7.162011583E0,-3.948606458E-3,5.169784656E-2,-1.398367471E-1,1.491394470E-1
7.171967583E0,-3.663931109E-2,2.858868185E-2,-1.949239504E-1,2.003873706E-1
7.181923583E0,-4.935099347E-2,1.396508787E-2,-1.101983804E-1,1.215492792E-1
7.191879583E0,-4.960271610E-2,4.650058547E-2,-1.545033181E-1,1.688016860E-1
7.201835583E0,-2.775602007E-2,4.228410345E-2,-1.169256020E-1,1.273967757E-1
7.211792583E0,-2.583299875E-3,4.957008133E-2,-8.084535778E-2,9.486747744E-2
7.221748583E0,-4.024538035E-2,1.558281144E-2,-2.255925965E-1,2.296835524E-1
7.231704583E0,-4.633658934E-2,1.766893353E-2,-1.413160926E-1,1.497648449E-1
7.241660583E0,-4.764022607E-2,5.271796642E-2,-5.165079474E-2,8.784406480E-2
7.251616583E0,-5.550266633E-2,4.228373799E-2,-2.799880743E-2,7.518240277E-2
7.261572583E0,-6.955093084E-2,2.594316395E-2,-6.646822393E-2,9.964137960E-2
7.271529583E0,-6.171432797E-2,1.888650656E-2,-8.622479618E-2,1.077036391E-1
7.281485583E0,-1.788252136E-2,-2.896641199E-2,-9.206207156E-2,9.815427965E-2
7.291441583E0,-3.749707935E-2,-5.589008091E-2,-1.233475989E-1,1.405146336E-1
7.301397583E0,-1.590331195E-2,-3.053520167E-2,-9.805254400E-2,1.039211973E-1
7.311353583E0,1.848275632E-2,-3.859734261E-2,-1.175185096E-1,1.250678506E-1
7.321309583E0,3.261545828E-2,-4.979572903E-2,-1.306957948E-1,1.436132777E-1
7.331266583E0,3.083852598E-2,-4.525549399E-2,-1.531508571E-1,1.626476543E-1
7.341222583E0,1.988625253E-2,-5.665224720E-2,-1.016596913E-1,1.180662229E-1
7.351178583E0,4.431915376E-3,-3.152339939E-2,-8.354852557E-2,8.940762109E-2
7.361134583E0,2.618788820E-2,-1.539644971E-4,-1.100469375E-1,1.131201027E-1
7.371090583E0,9.170590304E-3,7.710558828E-3,-1.646833205E-1,1.651185892E-1
7.381046583E0,7.393018473E-3,-3.054439276E-4,-1.081003994E-1,1.083533403E-1
7.391003583E0,1.853682479E-2,-8.349933587E-3,-1.079507107E-1,1.098484920E-1
7.400959583E0,2.868554464E-2,2.723084874E-3,-1.055521828E-1,1.094145281E-1
7.410915583E0,4.449893737E-2,1.007102497E-2,-1.474615163E-1,1.543582837E-1
7.420871583E0,3.275142431E-2,-3.540013991E-3,-1.350326747E-1,1.389928441E-1
7.430827583E0,1.275951991E-2,-2.397157419E-3,-1.386181873E-1,1.392248310E-1
7.440783583E0,-7.463970780E-4,1.146558590E-2,-1.607668555E-1,1.611769170E-1
7.450739583E0,1.145813070E-2,1.492903791E-2,-4.191342652E-2,4.594453455E-2
7.460696583E0,-7.261510938E-4,1.646416957E-2,-3.113876224E-2,3.523093369E-2
7.470652583E0,-2.644494642E-2,-1.574508995E-3,-2.425541997E-2,3.591851427E-2
7.480608583E0,-3.034803595E-2,-1.690747987E-2,-2.852271795E-3,3.485687330E-2
7.490564583E0,-2.363588920E-2,-3.949616930E-2,-5.209986091E-2,6.951976808E-2
7.500520583E0,-3.083081497E-2,-4.153894890E-2,-6.946492195E-2,8.661061603E-2
7.510476583E0,-5.076344322E-2,-3.981513491E-2,-1.193130201E-1,1.356383755E-1
7.520433583E0,-4.952825546E-2,-4.474958193E-2,-1.585291260E-1,1.720088863E-1
7.530389583E0,-5.835058926E-2,-1.428461993E-2,-2.172030115E-1,2.253574712E-1
7.540345583E0,-7.154497756E-2,1.371447986E-2,-1.742417639E-1,1.888569911E-1
7.550301583E0,-5.149341328E-2,3.523245273E-2,-1.866624194E-1,1.968140142E-1
7.560257583E0,-4.862482410E-2,2.205688516E-2,-1.573210913E-1,1.661349014E-1
7.570213583E0,-3.432553131E-2,1.318073871E-2,-1.260361487E-1,1.312900786E-1
7.580170583E0,-1.264299586E-2,1.832389478E-2,-1.567235059E-1,1.582967711E-1
7.590126583E0,2.226363905E-3,1.783875860E-2,-1.390643299E-1,1.402214885E-1
7.600082583E0,4.565836715E-2,1.713384021E-2,-4.551063359E-2,6.670436823E-2
7.610038583E0,3.292325936E-2,8.943261523E-3,-2.605168462E-2,4.292567070E-2
7.619994583E0,4.386224868E-2,-9.865568429E-3,-2.725094855E-2,5.257224074E-2
7.629950583E0,2.405849671E-2,-2.207252646E-2,-8.188850105E-2,8.815744037E-2
7.639907583E0,3.594528314E-2,-1.115469676E-2,-8.593068123E-2,9.381136720E-2
7.649863583E0,3.038761429E-2,5.391936824E-3,-6.901410162E-2,7.560043855E-2
7.659819583E0,2.722662779E-2,6.706628446E-3,-1.124197376E-1,1.158639958E-1
7.669775583E0,3.569741601E-2,-2.114590723E-3,-9.879338622E-2,1.050662180E-1
7.679731583E0,1.751149725E-2,-3.003840761E-2,-1.294754809E-1,1.340628906E-1
7.689687583E0,-3.751683198E-3,-1.633074341E-2,-1.416002673E-1,1.425882323E-1
7.699644583E0,4.754279684E-3,4.394127745E-3,-1.136067224E-1,1.137910317E-1
7.709600583E0,-7.569257207E-3,7.248245068E-3,-8.516528070E-2,8.580766719E-2
7.719556583E0,-2.380936878E-2,-7.288974579E-3,-7.199091911E-2,7.617550543E-2
7.729512583E0,-3.836573806E-2,-8.509745300E-3,-1.583642346E-1,1.631673264E-1
7.739468583E0,-3.192057151E-2,-1.523296522E-2,-1.309688598E-1,1.356606367E-1
7.749424583E0,-2.074319853E-2,6.501975898E-3,-1.067181176E-1,1.089096534E-1
7.759381583E0,-3.211214092E-2,2.002388136E-2,-1.483327514E-1,1.530841290E-1
7.769337583E0,-3.113857951E-2,1.423384052E-2,-1.606072265E-1,1.642159997E-1
7.779293583E0,-3.473887464E-2,1.033701846E-2,-1.329148132E-1,1.377678878E-1
7.789249583E0,-4.395633403E-2,1.119460400E-2,-1.133055907E-1,1.220476766E-1
7.799205583E0,-3.874374228E-2,2.197522514E-2,-1.484795165E-1,1.550166278E-1
7.809161583E0,-1.043713376E-2,5.644134544E-3,-7.543083608E-2,7.635837248E-2
7.819118583E0,-1.231906012E-2,-2.476803806E-2,-3.037511587E-2,4.108360519E-2
7.829074917E0,-3.511505160E-2,-8.603794109E-3,-1.091107982E-1,1.149445885E-1
7.839030917E0,-1.513639480E-2,-3.118318280E-2,-1.273716527E-1,1.320039365E-1
7.848986917E0,-1.275361788E-2,-3.102587443E-2,-5.836807609E-2,6.732081371E-2
7.858942917E0,-1.411320515E-2,-1.628550058E-2,-7.333753288E-2,7.643816990E-2
7.868898917E0,-1.292274859E-2,-2.615518034E-2,-1.104626745E-1,1.142501350E-1
7.878855917E0,3.790183458E-3,-2.963865906E-2,-1.242346215E-1,1.277773720E-1
7.888811917E0,4.345687218E-3,-2.274544962E-2,-1.562703466E-1,1.579767759E-1
7.898767917E0,3.619791940E-3,7.885244396E-3,-1.493834960E-1,1.496352527E-1
7.908723917E0,1.137831621E-2,1.531197572E-2,-1.046248144E-1,1.063497742E-1
7.918679917E0,2.186798355E-2,1.582368018E-2,-1.026806152E-1,1.061692342E-1
7.928635917E0,1.710264897E-2,-1.107078921E-3,-9.953715205E-2,1.010018359E-1
7.938592917E0,-1.942808663E-2,-6.385013312E-3,-1.477328271E-1,1.491415674E-1
7.948548917E0,-1.301937383E-3,1.449577751E-2,-8.665982902E-2,8.787348048E-2
7.958504917E0,9.722494371E-3,1.266653091E-2,-3.516515493E-2,3.862066835E-2
7.968460917E0,-1.199633036E-2,2.126350936E-2,-8.486297965E-2,8.830500602E-2
7.978416917E0,-2.911432827E-2,-9.744019434E-4,-9.129667103E-2,9.583149645E-2
7.988372917E0,-2.053726690E-2,-8.992213681E-3,-1.180932909E-1,1.202025981E-1
7.998329917E0,-1.914884554E-2,-2.388086926E-2,-9.294441640E-2,9.785519272E-2
8.008285917E0,-3.554162426E-2,-3.370311348E-2,-8.426247060E-2,9.746420299E-2
8.018241917E0,-1.668577904E-2,-9.169621859E-3,-1.285697472E-1,1.299718319E-1
8.028197917E0,-1.834816072E-2,-1.062470147E-2,-1.694318444E-1,1.707532991E-1
8.038153917E0,-1.842561806E-2,-1.907219220E-2,-1.683810997E-1,1.704565829E-1
8.048109917E0,-2.471110079E-2,-1.726823481E-2,-1.553581810E-1,1.582561052E-1
8.058065917E0,-9.014250375E-3,-1.260582950E-2,-1.044599229E-1,1.056032156E-1
8.068022917E0,-3.112710435E-3,3.092263453E-3,-6.958303571E-2,6.972123004E-2
8.077978917E0,-1.439091135E-3,8.035645746E-3,-1.388894981E-1,1.391292035E-1
8.087934917E0,-1.294341484E-2,2.475857288E-3,-1.185318321E-1,1.192621360E-1
8.097890917E0,6.905068327E-3,8.908945676E-3,-1.082062340E-1,1.087917201E-1
8.107846917E0,-9.426058810E-3,8.810548000E-3,-7.123428941E-2,7.239337213E-2
8.117802917E0,2.339821815E-2,2.705141231E-3,-3.201759875E-2,3.974822048E-2
8.127759917E0,5.275997501E-3,2.084981885E-2,-1.165923107E-1,1.185593438E-1
8.137715917E0,-1.709354924E-2,-6.614315528E-3,-1.074607140E-1,1.090125848E-1
8.147671917E0,-2.828203194E-2,-1.112145899E-2,-9.428869128E-2,9.906521834E-2
8.157627917E0,-1.186173476E-2,-3.128644098E-3,-1.363518065E-1,1.369025358E-1
8.167583917E0,-1.863074569E-2,2.267367505E-3,-8.231359363E-2,8.442614131E-2
8.177539917E0,-3.726187510E-2,-2.729081925E-2,-7.437716782E-2,8.755112361E-2
8.187496917E0,-3.320376126E-2,-1.007899180E-2,-1.454769713E-1,1.495580991E-1
8.197452917E0,-1.260866174E-2,4.786603823E-3,-1.595447874E-1,1.601138005E-1
8.207408917E0,-1.590645483E-2,5.721573606E-3,-1.447238499E-1,1.457077364E-1
8.217364917E0,-3.480343156E-2,-8.515738696E-3,-7.257271707E-2,8.093575178E-2
8.227320917E0,-4.918950068E-2,5.921292566E-3,-1.164262497E-1,1.265296025E-1
8.237276917E0,-2.345120855E-2,-1.100027544E-2,-1.601324326E-1,1.622139365E-1
8.247233917E0,-2.989991996E-2,-2.471437158E-2,-1.183710337E-1,1.245652720E-1
8.257189917E0,-3.804404983E-2,-1.892953841E-2,-5.535617530E-2,6.978526561E-2
8.267145917E0,-2.645015409E-2,1.233338580E-2,-8.813858986E-2,9.284467717E-2
8.277101917E0,-1.481406704E-2,-4.503086954E-4,-9.667493999E-2,9.780441392E-2
8.287057917E0,-5.272909440E-3,-8.417103477E-3,-1.011667711E-1,1.016531690E-1
8.297013917E0,-8.218663596E-3,-2.086776249E-2,-1.134389073E-1,1.156347509E-1
8.306970917E0,3.217348186E-2,-1.308223139E-3,-1.191253245E-1,1.234005159E-1
8.316926917E0,2.548649641E-2,8.835179396E-3,-1.014620554E-1,1.049865258E-1
8.326882917E0,1.839437200E-2,6.673262771E-3,-1.007136118E-1,1.025968663E-1
8.336838917E0,1.106676925E-2,-1.051389674E-2,-1.547518247E-1,1.555028703E-1
8.346794917E0,1.530212682E-2,-9.127083365E-3,-1.269091380E-1,1.281537671E-1
8.356750917E0,2.364599392E-2,1.495701319E-2,-9.697022438E-2,1.009260605E-1
8.366706917E0,9.781989790E-3,4.294414446E-3,-7.646286964E-2,7.720556815E-2
8.376663917E0,-2.965872232E-3,1.441307595E-2,-8.469341040E-2,8.596224125E-2
8.386619917E0,-1.974688780E-2,1.077364102E-2,-1.089418137E-1,1.112399645E-1
8.396575917E0,-1.786037503E-2,1.921376791E-3,-1.162748069E-1,1.176542196E-1
8.406531917E0,-1.199181704E-2,1.430185094E-2,-1.186622250E-1,1.201210650E-1
8.416487917E0,5.645578075E-3,1.360188441E-2,-7.674587488E-2,7.814610114E-2
8.426443917E0,-1.645845026E-3,1.716112113E-2,-8.797135949E-2,8.964470411E-2
8.436400917E0,-3.828389531E-2,-4.671377130E-3,-1.888627267E-1,1.927604937E-1
8.446356917E0,-3.090545833E-2,-2.418755572E-3,-1.200070846E-1,1.239463517E-1
8.456312917E0,-4.925548285E-3,1.032453831E-2,-8.587981045E-2,8.663832270E-2
8.466268917E0,-3.390228426E-2,-5.555786770E-3,-8.902444303E-2,9.542317906E-2
8.476224917E0,-3.107542958E-2,-7.878775913E-3,-1.027969748E-1,1.076799678E-1
8.486180917E0,-2.820145000E-2,-2.558995558E-2,-1.004013705E-1,1.073806445E-1
8.496137917E0,-2.968158128E-2,-7.174789421E-3,-1.173167807E-1,1.212258260E-1
8.506093917E0,-3.250664525E-2,-2.248482825E-2,-1.005504745E-1,1.080400269E-1
8.516049917E0,-1.974100403E-2,-8.914902527E-3,-1.256975949E-1,1.275502571E-1
8.526005917E0,2.801273111E-3,9.913771413E-4,-1.316810507E-1,1.317145742E-1
8.535961917E0,-7.757062465E-4,-1.232998710E-2,-1.482964987E-1,1.488102208E-1
8.545917917E0,-1.852127485E-2,-1.590709437E-2,-1.644617110E-1,1.662640300E-1
8.555874917E0,-5.537294950E-3,-1.299510788E-2,-7.853746176E-2,7.979766515E-2
8.565830917E0,2.819454297E-5,-1.783583499E-3,-9.440446615E-2,9.442131748E-2
8.575786917E0,7.928312793E-3,-2.306737538E-2,-1.300292122E-1,1.322972335E-1
8.585742917E0,4.875335321E-3,-1.693233054E-2,-8.527111530E-2,8.707258936E-2
8.595698917E0,4.418466780E-3,1.449778749E-2,-6.267045736E-2,6.447708831E-2
8.605654917E0,-4.925164562E-3,1.973453555E-3,-7.824100792E-2,7.842070572E-2
8.615610917E0,-1.242955422E-2,3.412124421E-3,-1.229973507E-1,1.236708724E-1
8.625567917E0,1.180737393E-2,1.258236755E-2,-7.464906335E-2,7.661731339E-2
8.635523917E0,7.627363913E-3,1.334908370E-2,-9.845015466E-2,9.964340254E-2
8.645479917E0,-9.682934303E-3,3.472253898E-2,-1.159613961E-1,1.214350004E-1
8.655435917E0,-2.472855108E-2,2.409412818E-2,-1.232943892E-1,1.280372394E-1
8.665391917E0,-2.617096782E-2,1.381068483E-2,-1.188019735E-1,1.224318728E-1
8.675347917E0,-2.059442343E-2,-1.031677248E-2,-1.164069539E-1,1.186640004E-1
8.685304917E0,-3.215363787E-2,-7.780853324E-3,-1.556242293E-1,1.591015363E-1
8.695260917E0,-1.285839267E-2,-2.830156529E-2,-1.144592464E-1,1.186053791E-1
8.705216917E0,-1.623590888E-2,-4.050413791E-2,-8.976002276E-2,9.980506806E-2
8.715172917E0,-3.085749289E-2,-2.246918695E-2,-1.134090865E-1,1.196606457E-1
8.725128917E0,-1.260888102E-2,-3.639571974E-2,-9.335079789E-2,1.009851661E-1
8.735084917E0,-4.019704945E-3,-1.865974423E-2,-8.077986896E-2,8.300440538E-2
8.745041917E0,-4.271208309E-3,-1.755754407E-2,-9.918982744E-2,1.008222815E-1
8.754997917E0,-1.006492194E-2,-1.571649341E-2,-1.120624727E-1,1.136059356E-1
8.764953917E0,-6.936460566E-3,-3.378521204E-3,-1.006872994E-1,1.009824794E-1
8.774909917E0,-8.046170734E-3,-3.315809816E-3,-7.898594320E-2,7.946392063E-2
8.784865917E0,-2.449837178E-3,8.238672037E-3,-9.769878745E-2,9.807614638E-2
8.794821917E0,4.199232738E-3,9.406963997E-3,-1.048844308E-1,1.053891282E-1
8.804778917E0,-9.271436501E-3,2.265171144E-2,-1.241960299E-1,1.265848072E-1
8.814734917E0,1.850095578E-3,1.865144849E-2,-1.174617916E-1,1.189477695E-1
8.824690917E0,1.877577491E-3,-2.917632703E-3,-1.493460739E-1,1.493863704E-1
8.834646667E0,-1.004021745E-3,3.854046017E-3,-1.373709762E-1,1.374286973E-1
8.844602667E0,-1.484989950E-2,-7.165397331E-4,-1.132716769E-1,1.142431868E-1
8.854558667E0,-8.727608901E-3,-1.732694451E-2,-9.081836879E-2,9.286748771E-2
8.864514667E0,-5.312798414E-3,-7.057516202E-3,-1.382714474E-1,1.385533382E-1
8.874471667E0,-1.347452475E-2,1.234021973E-2,-1.074326473E-1,1.089753071E-1
8.884427667E0,-1.970550047E-2,1.433561862E-2,-8.078630090E-2,8.438153307E-2
8.894383667E0,-1.067001740E-2,-8.469582237E-3,-9.021376669E-2,9.123654309E-2
8.904339667E0,-1.261275480E-2,-2.477172911E-3,-9.530025959E-2,9.616318135E-2
8.914295667E0,-1.056237381E-2,-8.618393876E-3,-9.230590045E-2,9.330712573E-2
8.924251667E0,-2.069936268E-2,-1.312880812E-2,-6.970290363E-2,7.388723836E-2
8.934208667E0,-2.626313455E-2,-1.429792235E-2,-1.204479647E-1,1.241043714E-1
8.944164667E0,-2.505206656E-2,-1.124472560E-2,-1.050288570E-1,1.085592497E-1
8.954120667E0,-2.027448937E-2,-1.557197582E-2,-9.664628863E-2,9.997022785E-2
8.964076667E0,-3.568091590E-2,-2.242573483E-2,-1.182026339E-1,1.254906530E-1
8.974032667E0,-1.291096279E-2,-1.297223065E-2,-1.524825203E-1,1.535769864E-1
8.983988667E0,7.336391844E-3,2.821811456E-3,-1.273377389E-1,1.275801121E-1
8.993945667E0,-7.262643836E-3,1.820457503E-3,-1.065333456E-1,1.067961319E-1
9.003901667E0,-1.480467495E-2,7.704346161E-3,-1.239001608E-1,1.250191393E-1
9.013857667E0,-2.114316635E-4,2.400397142E-2,-1.069835812E-1,1.096436135E-1
9.023813667E0,1.137161018E-2,1.332620647E-2,-1.002446651E-1,1.017639140E-1
9.033769667E0,1.882359417E-2,1.532116681E-2,-1.009896004E-1,1.038651301E-1
9.043725667E0,4.616395030E-3,2.013978414E-2,-1.205999923E-1,1.223571826E-1
9.053681667E0,1.605663691E-3,9.200575557E-3,-9.904423177E-2,9.948360967E-2
9.063638667E0,-7.226281464E-3,2.045752550E-2,-1.047329879E-1,1.069566653E-1
9.073594667E0,-3.559934724E-2,-8.193904292E-3,-1.132664144E-1,1.190114878E-1
9.083550667E0,-2.397870049E-2,-2.041785579E-2,-1.321231002E-1,1.358248155E-1
9.093506667E0,-2.380609799E-2,-1.611061402E-2,-9.694625080E-2,1.011180386E-1
9.103462667E0,-3.637185579E-2,-3.311174070E-2,-1.149106514E-1,1.249950282E-1
9.113418667E0,-3.074491572E-2,-4.953596648E-2,-1.394596016E-1,1.511556890E-1
9.123375667E0,-2.799740044E-2,-2.419484647E-2,-1.306273824E-1,1.357672938E-1
9.133331667E0,-3.152425820E-2,-2.149666708E-2,-1.288293636E-1,1.343610452E-1
9.143287667E0,-1.774925966E-2,-1.190071011E-2,-9.739531696E-2,9.971214011E-2
9.153243667E0,-2.270400748E-2,5.640918575E-3,-9.215679646E-2,9.507979307E-2
9.163199667E0,-7.980042379E-3,1.891722271E-2,-7.195291221E-2,7.482488869E-2
9.173155667E0,-3.201849410E-2,2.268045416E-2,-6.402116418E-2,7.508859053E-2
9.183112667E0,-1.114239933E-2,3.482731378E-2,-7.764459193E-2,8.582410794E-2
9.193068667E0,7.446959037E-3,3.335582541E-2,-9.815311611E-2,1.039331636E-1
9.203024667E0,-3.441013321E-3,1.215785969E-2,-8.617626429E-2,8.709766157E-2
9.212980667E0,-4.212187976E-4,2.242443748E-3,-1.143171591E-1,1.143399267E-1
9.222936667E0,-6.262240056E-3,-2.575515769E-3,-1.400624496E-1,1.402260272E-1
9.232892667E0,3.961927146E-3,6.733982451E-4,-1.128191024E-1,1.128906559E-1
9.242848667E0,1.234875301E-2,-2.045924312E-2,-1.288352108E-1,1.310327588E-1
9.252805667E0,-9.956675358E-3,-5.106921606E-3,-1.201515108E-1,1.206714614E-1
9.262761667E0,4.090090804E-3,-5.471184868E-3,-1.418540365E-1,1.420184156E-1
9.272717667E0,1.187975150E-2,-2.673913445E-2,-1.222442293E-1,1.256971018E-1
9.282673667E0,4.981133379E-3,2.765605096E-3,-9.275613606E-2,9.293094769E-2
9.292629667E0,-1.445722243E-2,-1.555615179E-3,-1.143095577E-1,1.152306652E-1
9.302585667E0,1.049856607E-2,7.111968398E-3,-1.047283101E-1,1.054932174E-1
9.312542667E0,-1.633635309E-2,-7.039901465E-3,-1.087710750E-1,1.102160760E-1
9.322498667E0,-1.658045607E-2,-3.231628183E-3,-8.796434283E-2,8.957165039E-2
9.332454667E0,-2.861062719E-2,-2.504353328E-2,-1.292784297E-1,1.347540684E-1
9.342410667E0,-2.691025687E-2,-1.900430968E-2,-1.120665658E-1,1.168085651E-1
9.352366667E0,-3.254284317E-2,-7.992650438E-3,-9.215738118E-2,9.806070573E-2
9.362322667E0,-2.389413513E-2,-2.916823229E-2,-1.026332527E-1,1.093402947E-1
9.372279667E0,-1.198132860E-2,-2.564654566E-2,-9.395072222E-2,9.812255472E-2
9.382235667E0,-7.078365181E-3,-1.682351751E-2,-8.077986896E-2,8.281618939E-2
9.392191667E0,2.144795246E-3,-3.047331255E-3,-7.434500813E-2,7.443834099E-2
9.402147667E0,1.097595468E-3,-4.662368763E-3,-1.108702254E-1,1.109736423E-1
9.412103667E0,1.015527969E-2,1.858619722E-2,-1.159619808E-1,1.178802673E-1
9.422059667E0,5.817961302E-3,2.542519201E-2,-1.117695272E-1,1.147724543E-1
9.432015667E0,1.393259928E-2,1.303178089E-2,-1.125150472E-1,1.141209029E-1
9.441972667E0,7.080429979E-4,2.096469836E-2,-1.222442293E-1,1.240309296E-1
9.451928667E0,1.358675474E-2,3.172352035E-3,-1.240410787E-1,1.248232868E-1
9.461884667E0,1.365251765E-3,-5.207822621E-3,-1.361670345E-1,1.362734259E-1
9.471840667E0,-6.073265355E-3,-7.311011273E-3,-1.554745406E-1,1.557647849E-1
9.481796667E0,-2.575826403E-3,1.691215765E-3,-1.295772225E-1,1.296138560E-1
9.491752667E0,-4.965912346E-3,-1.305743555E-2,-1.146106893E-1,1.154589408E-1
9.501709667E0,-1.894210992E-2,-1.265545774E-2,-1.038307625E-1,1.063004769E-1
9.511665667E0,-3.025760511E-2,-1.435252072E-2,-9.664278030E-2,1.022807142E-1
9.521621667E0,-2.714312224E-2,-4.776426014E-3,-9.933659256E-2,1.030889031E-1
9.531577667E0,-4.975636996E-2,-4.025807977E-4,-8.616456985E-2,9.949970614E-2
9.541533667E0,-4.272730412E-2,1.571896020E-3,-1.024812251E-1,1.110427615E-1
9.551489667E0,-3.234778371E-2,1.105085386E-2,-1.120595491E-1,1.171573430E-1
9.561445667E0,-4.016330006E-2,-2.682592906E-3,-1.122098225E-1,1.192112883E-1
9.571402667E0,-2.861271026E-2,-1.529911185E-2,-1.146036726E-1,1.191081517E-1
9.581358667E0,-2.685152890E-2,-7.349913530E-3,-1.360091597E-1,1.388290940E-1
9.591314667E0,8.217165247E-5,9.640596807E-4,-1.081647187E-1,1.081690461E-1
9.601270667E0,4.267371073E-4,-1.207819138E-2,-9.050203443E-2,9.130543821E-2
9.611226667E0,5.177636370E-3,-1.601428114E-2,-1.243299311E-1,1.254639267E-1
9.621182667E0,1.172958769E-2,1.402326766E-3,-1.271746016E-1,1.277220773E-1
9.631139667E0,1.210645901E-2,3.569688611E-3,-9.184747875E-2,9.271067025E-2
9.641095667E0,-2.051440794E-3,6.527977735E-3,-1.003797358E-1,1.006126944E-1
9.651051667E0,5.386034790E-3,3.175896909E-3,-1.126559651E-1,1.128293497E-1
9.661007667E0,1.643020090E-2,-4.916338921E-3,-1.023262739E-1,1.037534974E-1
9.670963667E0,1.270049958E-2,4.983125087E-3,-1.003814900E-1,1.013043817E-1
9.680919667E0,1.969121134E-2,-8.771956377E-3,-1.207385713E-1,1.226478439E-1
9.690876667E0,1.827543598E-2,9.255594201E-4,-1.062164265E-1,1.077811555E-1
9.700832667E0,-2.716634665E-3,1.276949672E-2,-9.319350779E-2,9.410350708E-2
9.710788667E0,-1.611127183E-2,-6.404126398E-3,-8.690775096E-2,8.862021831E-2
9.720744667E0,-2.848295689E-2,6.586285438E-3,-1.231365144E-1,1.265593109E-1
9.730700667E0,-1.354754185E-2,-1.032141371E-2,-1.216390425E-1,1.228255842E-1
9.740656667E0,-2.552824918E-2,-7.570134290E-3,-1.149048042E-1,1.179496184E-1
9.750612667E0,-3.448885135E-2,-1.753539775E-2,-1.137055403E-1,1.201079553E-1
9.760569667E0,-3.108867718E-2,-2.884901086E-2,-1.232821101E-1,1.303735017E-1
9.770525667E0,-4.067085665E-3,-6.787064206E-3,-1.264261580E-1,1.266735128E-1
9.780481667E0,-3.349349080E-2,-1.626167318E-2,-1.078641719E-1,1.141093139E-1
9.790437667E0,-3.022442216E-2,7.130496763E-3,-1.143019563E-1,1.184453329E-1
9.800393667E0,-2.745640509E-2,9.395507108E-3,-9.858347118E-2,1.027659016E-1
9.810349667E0,-3.643537117E-2,2.918345332E-3,-6.909362376E-2,7.816637292E-2
9.820306667E0,-3.556378886E-2,-4.179662839E-3,-1.074121821E-1,1.132238028E-1
9.830262958E0,-1.864784880E-2,1.450831247E-2,-1.092078620E-1,1.117344643E-1
9.840218958E0,-1.760377362E-4,4.085102398E-3,-1.148942792E-1,1.149670146E-1
9.850174958E0,9.765654132E-3,4.141930025E-3,-1.157912421E-1,1.162761168E-1
9.860130958E0,8.796112686E-3,4.811545853E-3,-1.217752826E-1,1.221873235E-1
9.870086958E0,1.516844485E-2,-8.131777626E-3,-1.147364044E-1,1.160200415E-1
9.880042958E0,7.029467840E-3,-3.130946439E-3,-1.160871112E-1,1.163418826E-1
9.889999958E0,7.566534597E-3,8.357845601E-3,-9.423314273E-2,9.490516961E-2
9.899955958E0,1.491880529E-3,-2.093833108E-3,-1.184821308E-1,1.185100213E-1
9.909911958E0,1.731501253E-2,-1.643453149E-2,-1.229727924E-1,1.252685561E-1
9.919867958E0,1.163862694E-2,-1.772574289E-2,-1.012655890E-1,1.034619694E-1
9.929823958E0,4.609378371E-3,-2.457623111E-2,-9.901850402E-2,1.021268899E-1
9.939779958E0,-5.908081513E-3,-1.441886835E-4,-1.261121625E-1,1.262505594E-1
9.949736958E0,-7.564360164E-3,-5.470673237E-3,-1.042552704E-1,1.046723899E-1
9.959692958E0,-1.316984827E-2,-3.109786827E-3,-9.033480406E-2,9.134272003E-2
9.969648958E0,-3.530536020E-2,-5.826458037E-3,-1.385339874E-1,1.430806826E-1
9.979604958E0,-2.795720084E-2,-5.597502999E-3,-1.145861310E-1,1.180801361E-1
9.989560958E0,-2.953242246E-2,-5.436174665E-3,-1.033588922E-1,1.076325999E-1
9.999516958E0,-2.538206879E-2,-7.385873906E-3,-1.012620807E-1,1.046556713E-1
1.000947296E1,-3.232711745E-2,-5.245464072E-3,-1.045552325E-1,1.095643832E-1
1.001942996E1,-2.407581909E-2,-5.262713358E-3,-9.168200254E-2,9.493645668E-2
1.002938596E1,-1.082122274E-2,7.162656449E-3,-8.779184997E-2,8.874576852E-2
1.003934196E1,-2.183754148E-2,-4.204805866E-3,-1.117402911E-1,1.139317834E-1
1.004929796E1,-6.292627305E-3,-1.341844629E-3,-1.261109930E-1,1.262750184E-1
1.005925396E1,4.069388006E-3,-3.936199397E-3,-1.063550055E-1,1.065055904E-1
1.006920996E1,-2.108054632E-2,5.341979675E-4,-1.097972614E-1,1.118039060E-1
1.007916696E1,-1.183478275E-2,-6.960397605E-3,-1.283580780E-1,1.290902994E-1
1.008912296E1,1.030060127E-2,-3.967701271E-3,-1.159362531E-1,1.164605505E-1
1.009907896E1,3.921764083E-3,-1.233513996E-2,-9.438224673E-2,9.526565178E-2
1.010903496E1,1.460269019E-3,-7.714249883E-3,-1.139926386E-1,1.142626960E-1
1.011899096E1,-2.026973851E-4,-1.314412052E-2,-9.722574770E-2,9.811042252E-2
1.012894696E1,1.311510371E-2,2.741832510E-3,-1.029145038E-1,1.037830366E-1
1.013890296E1,1.184711672E-2,-1.393320227E-2,-9.422963440E-2,9.598808416E-2
1.014885996E1,2.191152703E-3,1.898353379E-3,-1.157824713E-1,1.158187617E-1
1.015881596E1,5.495249815E-3,-1.138452888E-3,-1.171285003E-1,1.172628647E-1
1.016877196E1,-1.203868613E-3,1.234694403E-3,-8.434725523E-2,8.436488153E-2
1.017872796E1,-1.077744171E-2,-1.803555395E-3,-1.130863202E-1,1.136130357E-1
1.018868396E1,-1.228944032E-2,6.231432538E-3,-1.156292742E-1,1.164473708E-1
1.019863996E1,-1.793357486E-2,1.394904457E-2,-9.362795591E-2,9.634512484E-2
1.020859696E1,-1.865599835E-2,1.387325004E-2,-1.087453473E-1,1.112028052E-1
1.021855296E1,-1.234785765E-2,3.208824042E-3,-9.871503353E-2,9.953604365E-2
1.022850896E1,-1.712857772E-2,-3.847084176E-3,-1.008106756E-1,1.023278093E-1
1.023846496E1,-2.242933452E-2,-1.228485391E-2,-1.070976019E-1,1.101085329E-1
1.024842096E1,-9.298717417E-3,-2.619432013E-2,-1.175752276E-1,1.208161525E-1
1.025837696E1,-2.034728721E-2,-1.710162571E-2,-1.252087677E-1,1.279988797E-1
1.026833296E1,-1.786211092E-2,-9.263195582E-3,-1.479620379E-1,1.493238978E-1
1.027828996E1,-2.294496758E-2,-1.677376136E-2,-1.069508368E-1,1.106630566E-1
1.028824596E1,-1.768970942E-2,-1.790834047E-2,-1.250625873E-1,1.275707067E-1
1.029820196E1,-1.005362950E-2,-1.400208978E-2,-9.422729552E-2,9.579100795E-2
1.030815796E1,-8.850400429E-3,-1.048228523E-2,-1.035056573E-1,1.044108662E-1
1.031811396E1,-1.225773744E-2,-9.685163554E-3,-9.258071959E-2,9.388953169E-2
1.032806996E1,2.634371649E-3,2.598484363E-3,-1.097937530E-1,1.098560888E-1
1.033802696E1,1.140386123E-2,2.999420632E-3,-1.030554217E-1,1.037278387E-1
1.034798296E1,2.203203449E-2,4.799504243E-3,-1.009597796E-1,1.034471985E-1
1.035793896E1,2.554834899E-2,9.620679729E-4,-1.371844500E-1,1.395464691E-1
1.036789496E1,7.619762532E-3,-8.815170955E-3,-7.176989436E-2,7.270959879E-2
1.037785096E1,-6.983841285E-3,-6.717336159E-3,-1.252099371E-1,1.255843342E-1
1.038780696E1,-3.153461874E-2,-1.362326330E-2,-1.264068621E-1,1.309912985E-1
1.039776296E1,-4.144860942E-2,-1.805135971E-2,-1.198217279E-1,1.280667220E-1
1.040771996E1,-1.058616467E-2,-1.897132773E-2,-1.063468194E-1,1.085431903E-1
1.041767596E1,-2.903032936E-2,-4.120002966E-3,-6.188926935E-2,6.848369228E-2
1.042763196E1,-2.266095735E-2,-2.847466115E-3,-2.057635188E-2,3.074106875E-2
1.043758796E1,-2.228167405E-2,-7.223869488E-4,-1.982439995E-2,2.983289585E-2
1.044754396E1,-1.694667449E-2,7.034529336E-3,5.622156322E-2,5.913999112E-2
1.045749996E1,-2.068406856E-2,8.727243450E-3,9.798763990E-2,1.005264793E-1
1.046745696E1,-2.445153924E-2,-1.634746280E-2,7.239320755E-2,7.814021890E-2
1.047741296E1,-1.428732427E-2,-1.020631492E-3,8.179669976E-3,1.649473626E-2
1.048736896E1,-5.893445201E-4,-1.012766987E-2,3.987801075E-3,1.090043950E-2
1.049732496E1,-3.269415814E-3,-8.518607486E-3,-8.088511884E-2,8.139814619E-2
1.050728096E1,-2.799098678E-3,-8.421580251E-3,-1.175576860E-1,1.178921859E-1
1.051723696E1,1.246827375E-2,-5.151049811E-3,-1.380673796E-1,1.387248805E-1
1.052719296E1,-1.039313346E-2,7.436342686E-3,-2.141098344E-1,2.144908800E-1
1.053714996E1,-2.323835162E-2,-2.530101176E-2,-2.380617839E-1,2.405277014E-1
1.054710596E1,-1.090312030E-2,-1.961225566E-2,-2.669546306E-1,2.678960496E-1
1.055706196E1,-1.452037236E-2,-1.617394667E-2,-2.269871575E-1,2.280254534E-1
1.056701796E1,4.053728431E-3,-7.454596963E-3,-1.781898040E-1,1.783917318E-1
1.057697396E1,-4.271756485E-3,-4.353635777E-3,-1.668134612E-1,1.669249319E-1
1.058692996E1,1.850387938E-3,-3.742218018E-3,-1.778904265E-1,1.779394054E-1
1.059688696E1,-5.504641905E-3,-4.451119825E-3,-1.295415545E-1,1.297348368E-1
1.060684296E1,2.998068463E-3,-2.793233190E-3,-1.609785247E-1,1.610306678E-1
1.061679896E1,-5.356871802E-3,5.904189460E-3,-1.708591497E-1,1.710450367E-1
1.062675496E1,-1.665257782E-2,-5.586119201E-3,-2.373232806E-1,2.379723778E-1
1.063671096E1,-1.625001529E-2,5.620215777E-3,-2.401661968E-1,2.407809210E-1
1.064666696E1,-1.450085727E-2,1.479800547E-2,-2.344780254E-1,2.353915891E-1
1.065662296E1,-1.145637654E-2,1.510513047E-2,-1.819361150E-1,1.829211947E-1
1.066657996E1,-2.296475675E-2,1.029349325E-2,-1.457108599E-1,1.478681533E-1
1.067653596E1,-1.481443249E-2,-1.275964782E-2,-1.466101617E-1,1.479081320E-1
1.068649196E1,-2.233658306E-2,-2.815406928E-2,-1.603844476E-1,1.643616305E-1
1.069644796E1,-1.040230628E-2,-3.581880055E-2,-2.256498992E-1,2.287117651E-1
1.070640396E1,-1.006806482E-2,-2.712488623E-2,-2.647221637E-1,2.662986093E-1
1.071635996E1,-2.150532827E-3,-1.231209828E-2,-3.334316254E-1,3.336657929E-1
1.072631596E1,-1.813554134E-2,-1.189692769E-2,-3.936047369E-1,3.942018819E-1
1.073627296E1,-1.875737445E-2,9.826172814E-3,-5.154501861E-1,5.158849553E-1
1.074622896E1,-1.465929855E-2,3.708289549E-2,-5.359516937E-1,5.374330229E-1
1.075618496E1,-1.931867061E-2,2.875079591E-2,-5.157448858E-1,5.169067677E-1
1.076614096E1,-7.882722784E-3,-5.563497785E-3,-4.486843389E-1,4.487880634E-1
1.077609696E1,-2.661899244E-2,-4.929272231E-2,-4.751786578E-1,4.784695393E-1
1.078605296E1,-1.780685473E-2,-5.517248137E-2,-4.600583428E-1,4.636968466E-1
1.079600996E1,1.965607323E-2,-3.186162427E-2,-4.045209038E-1,4.062495366E-1
1.080596596E1,4.487061929E-3,-4.011020003E-2,-4.414922637E-1,4.433332615E-1
1.081592196E1,-8.139324188E-3,-3.776786026E-2,-4.590035051E-1,4.606266140E-1
1.082587796E1,2.836100589E-3,-3.433369914E-2,-4.814550591E-1,4.826860473E-1
1.083583354E1,1.828203237E-2,-2.004080174E-2,-5.043556792E-1,5.050846637E-1
1.084578954E1,-8.514276892E-4,-5.942762811E-3,-5.604901189E-1,5.605222696E-1
1.085574554E1,-7.905015294E-3,-1.592982542E-2,-6.330897331E-1,6.333394499E-1
1.086570254E1,-5.760969222E-4,-8.585960101E-3,-6.260549480E-1,6.261140858E-1
1.087565854E1,-5.925659705E-3,-1.521237206E-2,-6.161749077E-1,6.163911474E-1
1.088561454E1,-8.195914272E-3,-5.329919793E-4,-5.992600822E-1,5.993163633E-1
1.089557054E1,-1.336238611E-2,-2.461328784E-2,-6.197691911E-1,6.204016583E-1
1.090552654E1,-8.409100100E-3,-9.371021893E-3,-6.413278753E-1,6.414514577E-1
1.091548254E1,-4.360140804E-3,-1.047000607E-2,-6.726116484E-1,6.727072628E-1
1.092543954E1,-2.055453446E-2,-2.570015732E-2,-6.937183428E-1,6.944984709E-1
1.093539554E1,-3.501436986E-2,-1.927260552E-2,-7.056940252E-1,7.068249405E-1
1.094535154E1,-2.310863480E-2,-1.721659658E-2,-7.435658562E-1,7.441240506E-1
1.095530754E1,-4.706736339E-2,-2.345614213E-2,-7.950599456E-1,7.967972417E-1
1.096526354E1,-4.754886333E-2,-2.709062520E-2,-8.158649236E-1,8.176982145E-1
1.097521954E1,-2.824654665E-2,-2.118652711E-2,-8.535841423E-1,8.543141251E-1
1.098517554E1,-4.748750411E-2,-2.405235713E-2,-8.558300579E-1,8.574839164E-1
1.099513254E1,-4.186160557E-2,-3.427679842E-2,-8.908572185E-1,8.924986704E-1
1.100508854E1,-2.759613527E-2,-4.578890624E-2,-8.877125859E-1,8.893209802E-1
1.101504454E1,-2.492499925E-2,-5.591913426E-2,-8.734927422E-1,8.756356410E-1
1.102500054E1,-3.118437052E-2,-4.612884874E-2,-8.953496343E-1,8.970793183E-1
1.103495654E1,-1.368451288E-2,-3.728378389E-2,-8.902602178E-1,8.911456681E-1
1.104491254E1,-4.722631630E-3,-3.283392487E-2,-9.257393682E-1,9.263334970E-1
1.105486854E1,1.339633651E-3,-2.200321868E-2,-9.103243536E-1,9.105912173E-1
1.106482554E1,-1.727572655E-2,-2.493256409E-2,-9.411608148E-1,9.416494904E-1
1.107478154E1,-1.040051557E-2,-4.183120005E-2,-9.618178582E-1,9.627832635E-1
1.108473754E1,5.899018329E-3,-3.331858596E-2,-1.011962995E0,1.012528533E0
1.109469354E1,-5.135792233E-3,-2.782342751E-2,-1.014055713E0,1.014450348E0
1.110464954E1,-5.170053262E-3,-1.778962372E-2,-1.038304701E0,1.038469958E0
1.111460554E1,-8.740710318E-3,-2.505528253E-2,-1.066298831E0,1.066628972E0
1.112456154E1,-1.788738186E-2,-2.494347280E-2,-1.046987232E0,1.047437062E0
1.113451854E1,-1.611794131E-2,-3.615033768E-2,-1.051628167E0,1.052372765E0
1.114447454E1,-2.743023880E-2,-3.329263894E-2,-1.037855635E0,1.038751721E0
1.115443054E1,-2.356418772E-2,-1.783398947E-2,-1.014654468E0,1.015084732E0
1.116438654E1,-1.582172502E-2,-3.062638169E-2,-1.013004969E0,1.013591322E0
1.117434254E1,-2.569228185E-2,-3.891959729E-2,-1.016750110E0,1.017819048E0
1.118429854E1,-3.144058820E-2,-1.990595033E-2,-1.025580575E0,1.026255462E0
1.119425554E1,-1.078537200E-2,-3.166133886E-2,-1.036359918E0,1.036899534E0
1.120421154E1,-1.905423028E-2,-3.454602616E-2,-1.021688669E0,1.022450110E0
1.121416754E1,-3.121455677E-2,-9.979260229E-3,-1.012258279E0,1.012788605E0
1.122412354E1,-7.928952333E-3,1.067007221E-3,-1.006717458E0,1.006749247E0
1.123407954E1,-2.803849541E-2,-9.669138528E-3,-1.001029871E0,1.001469147E0
1.124403554E1,-4.288923545E-2,-2.051279996E-2,-9.672019744E-1,9.683697232E-1
1.125399154E1,-2.771496166E-2,-3.801569084E-2,-1.005969599E0,1.007069087E0
1.126394854E1,-4.362589326E-3,-3.382944988E-2,-9.951890874E-1,9.957734599E-1
1.127390454E1,-2.249855094E-2,-3.780303491E-2,-9.764756584E-1,9.774660944E-1
1.128386054E1,-7.585629411E-3,-5.073237989E-2,-1.005816402E0,1.007123602E0
1.129381654E1,-7.383809108E-3,-4.362026531E-2,-9.917456621E-1,9.927319409E-1
1.130377254E1,1.768782735E-4,-4.079401363E-2,-1.021985123E0,1.022798990E0
1.131372854E1,-1.475716632E-2,-4.983762799E-2,-9.847132158E-1,9.860840129E-1
1.132368554E1,-1.345740337E-2,-4.611114264E-2,-1.003124928E0,1.004274346E0
1.133364154E1,-6.657785922E-3,-1.858003937E-2,-9.426483464E-1,9.428549459E-1
1.134359754E1,-2.629529424E-3,-2.243359203E-2,-9.459426677E-1,9.462122971E-1
1.135355354E1,-6.846358627E-4,-2.629251681E-2,-9.386085051E-1,9.389769385E-1
1.136350954E1,1.403916478E-3,-1.183966152E-2,-9.058260906E-1,9.059045507E-1
1.137346554E1,2.033752967E-3,-1.323268756E-2,-9.130076408E-1,9.131057947E-1
1.138342154E1,-1.129870271E-2,-7.641579956E-3,-8.302315325E-1,8.303435746E-1
1.139337854E1,-1.192393452E-2,-1.554074803E-2,-8.640611833E-1,8.642831848E-1
1.140333454E1,-1.996489758E-2,-1.599964483E-2,-8.865127373E-1,8.868818518E-1
1.141329054E1,-3.675877701E-2,-2.169479633E-2,-8.730395830E-1,8.740823676E-1
1.142324654E1,-3.966844289E-2,-2.382884732E-2,-8.465429252E-1,8.478067726E-1
1.143320254E1,-3.280518215E-2,-1.961812114E-2,-8.704931206E-1,8.713319250E-1
1.144315854E1,-5.963063613E-3,-2.235127419E-2,-8.898023808E-1,8.901030359E-1
1.145311454E1,-1.502984757E-2,-3.454262746E-2,-9.094110185E-1,9.101909085E-1
1.146307154E1,-3.181680171E-2,-1.402407166E-2,-9.444381791E-1,9.450780167E-1
1.147302754E1,-1.092570517E-3,-2.137234066E-2,-9.174947941E-1,9.177443369E-1
1.148298354E1,1.631387785E-2,-1.505140917E-2,-9.224362761E-1,9.227032952E-1
1.149293954E1,-8.934070431E-3,-1.768587219E-2,-9.396528178E-1,9.398617057E-1
1.150289554E1,-2.185128244E-2,-1.404391564E-2,-9.270795500E-1,9.274433687E-1
1.151285154E1,-1.301085882E-2,-2.542627009E-2,-8.904058135E-1,8.908637889E-1
1.152280754E1,-8.943462521E-3,-2.093358021E-2,-8.800778764E-1,8.803722332E-1
1.153276454E1,-1.737019563E-2,-2.636239104E-2,-8.954981536E-1,8.960544863E-1
1.154272054E1,2.611128967E-3,-4.048568264E-2,-8.920535588E-1,8.929756213E-1
1.155267654E1,1.496370094E-2,-4.189889984E-2,-8.736430156E-1,8.747751419E-1
1.156263254E1,4.840288572E-3,-4.818902381E-2,-9.013336748E-1,9.026339256E-1
1.157258854E1,-7.999813277E-3,-3.877688868E-2,-9.278268242E-1,9.286712334E-1
1.158254454E1,7.086843643E-3,-3.515004354E-2,-8.528333598E-1,8.535868372E-1
1.159250154E1,4.147064611E-3,-2.959319696E-2,-8.787271696E-1,8.792351188E-1
1.160245754E1,-2.371727513E-2,-3.186820239E-2,-9.183929265E-1,9.192516842E-1
1.161241354E1,-3.920813911E-2,-2.327456782E-2,-9.430921501E-1,9.441937234E-1
1.162236954E1,-9.270870052E-3,-1.636811078E-2,-9.142028117E-1,9.143963282E-1
1.163232554E1,-1.544693677E-2,-2.203419065E-2,-9.368017155E-1,9.371881175E-1
1.164228154E1,-3.664444568E-2,-2.021130290E-2,-9.766177458E-1,9.775139557E-1
1.165223754E1,-2.836570194E-2,-2.530671280E-2,-9.484768510E-1,9.492383155E-1
1.166219454E1,-2.896924423E-2,-2.537883455E-2,-9.393440849E-1,9.401332949E-1
1.167215054E1,-4.530861229E-2,-1.707617205E-2,-9.507215971E-1,9.519537915E-1
1.168210654E1,-3.367261659E-2,-2.170740439E-2,-9.029708952E-1,9.038592225E-1
1.169206254E1,-2.956862038E-2,-2.271349093E-2,-8.924944389E-1,8.932729311E-1
1.170201854E1,-4.426336767E-2,-1.570366608E-2,-9.037199235E-1,9.049395289E-1
1.171197454E1,-3.850322071E-2,-1.595794687E-2,-9.092584062E-1,9.102131636E-1
1.172193054E1,-1.575095544E-2,-1.181625439E-2,-8.960875529E-1,8.963038653E-1
1.173188754E1,-2.370625678E-2,-1.523820944E-3,-9.570120317E-1,9.573068147E-1
1.174184354E1,-3.466284256E-2,-3.343940405E-2,-9.701869780E-1,9.713817368E-1
1.175179954E1,-7.602239158E-3,-5.053982377E-2,-9.417513835E-1,9.431371778E-1
1.176175554E1,-2.739619704E-2,-3.846113903E-2,-1.001778899E0,1.002891208E0
1.177171154E1,-1.523442702E-2,-4.520403849E-2,-1.014058052E0,1.015179406E0
1.178166754E1,-9.563852102E-3,-3.784000028E-2,-9.905645245E-1,9.913331479E-1
1.179162454E1,-1.383414678E-3,-1.164960874E-2,-1.020806909E0,1.020874317E0
1.180158054E1,6.552828401E-3,-2.943159454E-4,-1.024103569E0,1.024124575E0
1.181153654E1,-3.497402407E-3,-1.664775386E-2,-1.000156297E0,1.000300954E0
1.182149254E1,8.862917125E-4,-9.101483524E-3,-9.377361006E-1,9.377806869E-1
1.183144867E1,1.721990392E-2,4.471475445E-4,-8.959723628E-1,8.961379357E-1
1.184140467E1,1.236834118E-2,-2.640045276E-2,-9.486668855E-1,9.491147557E-1
1.185136067E1,-1.851389274E-2,-5.280150851E-2,-8.932797199E-1,8.950304026E-1
1.186131767E1,2.927920148E-3,-4.542391207E-2,-9.398305732E-1,9.409322031E-1
1.187127367E1,2.820020746E-3,-3.878715785E-2,-9.501573408E-1,9.509528739E-1
1.188122967E1,-2.690079169E-2,-6.655671788E-2,-9.869807661E-1,9.895880364E-1
1.189118567E1,-3.333605452E-2,-5.772044213E-2,-9.571932954E-1,9.595113062E-1
1.190114167E1,-4.839581424E-2,-4.460835340E-2,-9.594421345E-1,9.616970778E-1
1.191109767E1,-1.887587193E-2,-4.430515699E-2,-9.554011238E-1,9.566141086E-1
1.192105367E1,-4.046645992E-2,-4.802930346E-2,-9.735134590E-1,9.755371870E-1
1.193101067E1,-2.961432002E-2,-4.418594688E-2,-9.086982429E-1,9.102537572E-1
1.194096667E1,-2.045909693E-2,-5.216262711E-2,-9.887846321E-1,9.903709219E-1
1.195092267E1,-2.599145830E-2,-2.898600016E-2,-9.191787922E-1,9.200029327E-1
1.196087867E1,-3.153123831E-2,-3.498213708E-2,-9.946260005E-1,9.957403526E-1
1.197083467E1,-3.370762680E-2,-6.660800893E-3,-9.176883370E-1,9.183313423E-1
1.198079067E1,-2.621935353E-2,5.407943577E-4,-9.618465096E-1,9.622039570E-1
1.199074667E1,-1.037897224E-2,1.301071264E-2,-9.753196639E-1,9.754616591E-1
1.200070367E1,-5.850979798E-3,9.054559618E-3,-9.477757698E-1,9.478370793E-1
1.201065967E1,-1.531979637E-2,-6.271467693E-3,-1.050763364E0,1.050893750E0
1.202061567E1,-1.835011588E-2,-9.041421656E-3,-9.236747164E-1,9.239012153E-1
1.203057167E1,-2.765360244E-2,-6.757426132E-3,-1.016033242E0,1.016431962E0
1.204052767E1,-1.393689333E-2,3.796871211E-3,-9.765124959E-1,9.766193260E-1
1.205048367E1,8.044855110E-3,-5.893098023E-3,-9.449287605E-1,9.449813812E-1
1.206043967E1,1.028596496E-2,-3.511960147E-2,-9.170860738E-1,9.178159152E-1
1.207039667E1,-1.038872978E-2,-5.120459737E-2,-8.913413680E-1,8.928713629E-1
1.208035267E1,1.898645740E-3,-4.097511286E-2,-9.392435127E-1,9.401387881E-1
1.209030867E1,-5.099831857E-3,-3.206563728E-2,-9.456824666E-1,9.462396848E-1
1.210026467E1,1.512473691E-3,-4.692640895E-2,-9.670873690E-1,9.682263964E-1
1.211022067E1,-1.398452986E-2,-6.815938488E-2,-9.374484175E-1,9.400270232E-1
1.212017667E1,-2.263787912E-2,-4.272310143E-2,-1.039088228E0,1.040212518E0
1.213013267E1,5.017989110E-3,-2.730017480E-2,-9.305639058E-1,9.309777992E-1
1.214008967E1,2.732166331E-3,-2.834090609E-2,-9.305633211E-1,9.309988004E-1
1.215004567E1,-7.037050948E-3,-3.223538926E-2,-9.140963924E-1,9.146916721E-1
1.216000167E1,-2.029806096E-3,-2.381512463E-2,-9.173889595E-1,9.177002688E-1
1.216995767E1,-4.212105749E-2,-7.830845190E-2,-8.227862728E-1,8.275769739E-1
1.217991367E1,-4.464367423E-2,-9.836833019E-2,-9.220304793E-1,9.283370028E-1
1.218986967E1,-5.790336862E-2,-7.579484353E-2,-9.224795455E-1,9.273975255E-1
1.219982667E1,-4.506966216E-2,-5.439905919E-2,-9.775667489E-1,9.801159526E-1
1.220978267E1,-6.196997920E-2,-4.919185784E-2,-9.034772640E-1,9.069351045E-1
1.221973867E1,-4.020848807E-2,-2.091009999E-2,-9.581183249E-1,9.591895951E-1
1.222969467E1,-2.833670340E-2,-2.025332976E-2,-9.569260776E-1,9.575597549E-1
1.223965067E1,-6.363086253E-3,-1.172525709E-2,-9.844746494E-1,9.845650339E-1
1.224960667E1,-3.622949436E-2,-3.095168788E-3,-9.311872190E-1,9.318968791E-1
1.225956267E1,-2.090160325E-3,9.182595368E-3,-9.018523228E-1,9.019014918E-1
1.226951967E1,3.347019330E-2,1.286604887E-2,-8.994613963E-1,9.001758676E-1
1.227947567E1,1.532430969E-2,-1.027534861E-2,-8.921301574E-1,8.923209260E-1
1.228943167E1,2.310165469E-2,-9.204887878E-3,-9.338979882E-1,9.342290237E-1
1.229938767E1,3.529415913E-3,-2.180335354E-2,-8.674361962E-1,8.677173488E-1
1.230934367E1,1.683364050E-2,-1.455680782E-2,-9.057565087E-1,9.060298699E-1
1.231929967E1,-3.261191340E-2,-1.167148098E-2,-9.398884606E-1,9.405264902E-1
1.232925567E1,-3.238897003E-2,-1.441168724E-2,-9.951253527E-1,9.957566017E-1
1.233921267E1,-2.797929235E-2,-2.887649277E-2,-8.590565515E-1,8.599970065E-1
1.234916867E1,-2.192338591E-2,-3.390603013E-2,-9.517167932E-1,9.525728886E-1
1.235912467E1,-3.994032014E-2,-3.000666820E-2,-8.857034826E-1,8.871112041E-1
1.236908067E1,-3.327650428E-2,-3.684127757E-2,-9.577037573E-1,9.589896205E-1
1.237903667E1,-2.718036169E-2,-3.213786867E-2,-8.475322741E-1,8.485767911E-1
1.238899267E1,-3.923810609E-3,-1.544708295E-2,-9.668376929E-1,9.669690445E-1
1.239894867E1,-2.796127561E-2,-2.550803974E-2,-9.726767224E-1,9.734128103E-1
1.240890567E1,7.962628640E-4,-3.079363033E-2,-9.093578088E-1,9.098793910E-1
1.241886167E1,9.347322397E-4,-2.347958582E-2,-8.942410022E-1,8.945496826E-1
1.242881767E1,-3.652269568E-2,-2.271338129E-2,-9.753722888E-1,9.763200842E-1
1.243877367E1,-3.549303755E-2,-2.115999537E-2,-9.903394067E-1,9.912011106E-1
1.244872967E1,-1.868702514E-2,1.051694825E-3,-8.788224792E-1,8.790217637E-1
1.245868567E1,-4.661847996E-2,3.169611152E-2,-9.475336951E-1,9.492091600E-1
1.246864167E1,-1.704372000E-2,-5.461134966E-3,-9.217878199E-1,9.219615487E-1
1.247859867E1,-4.074796680E-3,-6.660837438E-3,-9.548707813E-1,9.549027069E-1
1.248855467E1,-1.667370088E-4,4.553592280E-3,-9.141577882E-1,9.141691444E-1
1.249851067E1,1.078584708E-2,-3.943325691E-3,-9.690953028E-1,9.691633455E-1
1.250846667E1,2.013106814E-2,-3.183361245E-2,-9.204476380E-1,9.212179401E-1
1.251842267E1,1.462788804E-2,-1.516656278E-2,-8.973973292E-1,8.976446770E-1
1.252837867E1,1.065870669E-2,-4.718686586E-2,-8.734488881E-1,8.747874990E-1
1.253833467E1,-5.014864504E-3,-7.666755874E-2,-9.050343776E-1,9.082897599E-1
1.254829167E1,1.813479217E-2,-2.667355428E-2,-9.737432545E-1,9.742773091E-1
1.255824767E1,7.721577175E-3,-3.842808399E-2,-9.592222792E-1,9.600227712E-1
1.256820367E1,1.342549950E-2,-3.553566741E-2,-9.692531776E-1,9.699972938E-1
1.257815967E1,2.141542733E-5,-4.204544568E-2,-9.496445400E-1,9.505748641E-1
1.258811567E1,-8.683023881E-3,-3.709097195E-2,-8.857274562E-1,8.865462547E-1
1.259807167E1,-2.544901941E-2,-8.028945202E-2,-8.855754286E-1,8.895717444E-1
1.260802867E1,-3.683665462E-2,-8.191715240E-2,-9.503906447E-1,9.546254430E-1
1.261798467E1,-2.312339902E-2,-4.314587340E-2,-1.017450607E0,1.018627506E0
1.262794067E1,-1.097606432E-2,-3.354924034E-2,-1.008769246E0,1.009386654E0
1.263789667E1,-3.072121622E-2,-3.908677284E-2,-1.009970849E0,1.011193693E0
1.264785267E1,-3.131797940E-2,-3.781770777E-2,-9.976987123E-1,9.989062596E-1
1.265780867E1,-2.700894691E-2,-3.276485464E-2,-9.327361465E-1,9.337021676E-1
1.266776467E1,-4.225269293E-2,-4.419680078E-2,-9.084854043E-1,9.105407058E-1
1.267772167E1,-5.918398194E-2,-2.051024180E-2,-9.204599172E-1,9.225886802E-1
1.268767767E1,-4.664144855E-2,2.672122736E-2,-9.179157937E-1,9.194883648E-1
1.269763367E1,-1.505301716E-2,1.552784761E-2,-9.200120205E-1,9.202661708E-1
1.270758967E1,1.150845330E-2,-9.623968787E-3,-8.228652102E-1,8.230019559E-1
1.271754567E1,-1.112516832E-2,-1.461769195E-2,-7.998154861E-1,8.000264108E-1
1.272750167E1,2.456744201E-4,-5.419252457E-2,-7.453311306E-1,7.472987250E-1
1.273745767E1,1.588929690E-2,-2.181504797E-2,-7.185391885E-1,7.190458480E-1
1.274741467E1,-6.762103904E-3,-1.089372821E-2,-6.935429263E-1,6.936614376E-1
1.275737067E1,3.749417402E-3,8.722858038E-3,-7.579096609E-1,7.579691290E-1
1.276732667E1,-4.563203640E-4,-3.006075494E-2,-6.844119143E-1,6.850719128E-1
1.277728267E1,8.429090269E-3,-2.236145200E-2,-7.154004031E-1,7.157994279E-1
1.278723867E1,-3.278716542E-3,-1.059446041E-2,-6.425037503E-1,6.425994567E-1
1.279719467E1,-7.039755285E-3,-1.997933289E-2,-6.339726627E-1,6.343264687E-1
1.280715067E1,-1.913713284E-2,-3.798033345E-2,-5.766424674E-1,5.782086741E-1
1.281710767E1,-5.808112398E-3,-1.521895017E-2,-6.344228983E-1,6.346319914E-1
1.282706367E1,-1.403074114E-2,-1.868607497E-2,-6.016404837E-1,6.020940979E-1
1.283701967E1,-3.416053019E-4,-2.964794151E-2,-6.287358963E-1,6.294346229E-1
1.284697567E1,-2.013925424E-2,-3.653957952E-2,-5.561397904E-1,5.577026062E-1
1.285693167E1,-3.885538755E-2,-2.409469463E-2,-5.176703739E-1,5.196853966E-1
1.286688767E1,-6.707231440E-3,2.889894973E-3,-4.932740360E-1,4.933280988E-1
1.287684367E1,-2.239056017E-2,2.473710263E-2,-4.947715080E-1,4.958952576E-1
1.288680067E1,-3.063504288E-2,9.747820124E-3,-5.321931034E-1,5.331632257E-1
1.289675667E1,-3.092482723E-2,8.008712009E-3,-4.814433646E-1,4.825020184E-1
1.290671267E1,-1.539292311E-2,-1.725555366E-2,-4.652769828E-1,4.658512283E-1
1.291666867E1,-2.226400450E-2,-3.166393356E-2,-4.311450309E-1,4.328791150E-1
1.292662467E1,-2.216209849E-2,-1.439100271E-2,-3.884802371E-1,3.893779067E-1
1.293658067E1,-1.952615540E-2,-3.344435591E-2,-3.595908988E-1,3.616703059E-1
1.294653667E1,-2.596061423E-2,2.808017509E-2,-3.721635818E-1,3.741232168E-1
1.295649367E1,-9.368902277E-3,1.372299487E-2,-4.083905911E-1,4.087284818E-1
1.296644967E1,-5.621348675E-3,4.380258881E-3,-2.693309391E-1,2.694252048E-1
1.297640567E1,-3.894934500E-2,-2.611454219E-2,-3.356453812E-1,3.389053595E-1
1.298636167E1,-3.941405246E-2,-2.366554555E-2,-2.432909489E-1,2.475964688E-1
1.299631767E1,-1.534605402E-2,-1.874016171E-2,-2.955317277E-1,2.965226755E-1
1.300627367E1,-2.695639506E-3,-3.165530892E-2,-2.338570511E-1,2.360051809E-1
1.301622967E1,1.705660215E-2,-2.073360544E-2,-3.595955765E-1,3.605964347E-1
1.302618667E1,4.269801322E-3,-2.228397639E-2,-2.289214164E-1,2.300430866E-1
1.303614267E1,-4.256772995E-3,-4.574673319E-2,-2.656004155E-1,2.695449210E-1
1.304609867E1,-7.972861268E-3,-1.895438908E-2,-1.537835258E-1,1.551522098E-1
1.305605467E1,-2.391604392E-2,-2.885436472E-3,-2.521313542E-1,2.532795347E-1
1.306601067E1,-2.747568263E-2,1.497150332E-2,-2.202494109E-1,2.224609225E-1
1.307596667E1,5.137729123E-3,1.003692839E-2,-2.407567656E-1,2.410206555E-1
1.308592267E1,3.197696060E-6,-1.238580974E-2,-2.522816277E-1,2.525854864E-1
1.309587967E1,-2.655348536E-3,-1.639840666E-2,-3.040780181E-1,3.045314429E-1
1.310583567E1,-1.043119518E-2,-3.909373468E-2,-3.193480217E-1,3.219010545E-1
1.311579167E1,2.378155796E-2,-2.573118411E-2,-3.202484930E-1,3.221595157E-1
1.312574767E1,1.419992667E-2,1.550400194E-2,-2.933092010E-1,2.940617272E-1
1.313570367E1,-5.302967783E-3,4.744430780E-3,-3.316289288E-1,3.317052570E-1
1.314565967E1,-2.160074752E-2,1.078115104E-2,-2.281957769E-1,2.294692531E-1
1.315561567E1,-8.804353606E-3,4.215513580E-3,-2.180151898E-1,2.182336137E-1
1.316557267E1,-4.255619997E-2,3.784707176E-2,-2.374747235E-1,2.442082621E-1
1.317552867E1,-4.484478191E-2,5.063506030E-3,-2.581305975E-1,2.620459862E-1
1.318548467E1,-2.703381585E-2,2.453528233E-3,-2.323864764E-1,2.339664963E-1
1.319544067E1,-1.071328679E-2,-4.147923421E-3,-1.482614154E-1,1.487058407E-1
1.320539667E1,-1.254308157E-2,-9.465765059E-3,-1.647306830E-1,1.654784805E-1
1.321535267E1,-2.239585921E-2,-3.122670801E-2,-1.813496393E-1,1.853763024E-1
1.322530967E1,-3.555309942E-2,-2.301933685E-2,-1.906297553E-1,1.952783048E-1
1.323526567E1,-1.811871232E-2,-5.425667949E-3,-1.886832172E-1,1.896288007E-1
1.324522167E1,-1.566231530E-3,1.518467087E-3,-1.954221332E-1,1.954343086E-1
1.325517767E1,-2.678088723E-2,-2.130186344E-2,-1.855467707E-1,1.886758846E-1
1.326513367E1,-3.780694524E-2,-1.951279817E-2,-1.874933088E-1,1.922598638E-1
1.327508967E1,-1.175485862E-2,-1.667024737E-2,-1.985702741E-1,1.996151988E-1
1.328504567E1,-1.553243402E-2,-7.264946178E-3,-1.666854072E-1,1.675650945E-1
1.329500267E1,1.277227415E-2,3.568025809E-3,-1.672859162E-1,1.678107254E-1
1.330495867E1,-4.659627881E-2,-1.408813521E-5,-1.211829597E-1,1.298326735E-1
1.331491467E1,-3.261783371E-2,1.017583631E-2,-1.698358870E-1,1.732388502E-1
1.332487067E1,1.324304810E-2,-1.501930431E-3,-1.436450386E-1,1.442620228E-1
1.333482667E1,-1.982023381E-3,2.139240392E-3,-6.715644121E-2,6.721973194E-2
1.334478267E1,-4.352628959E-2,5.264229979E-3,-3.482426226E-2,5.599088538E-2
1.335473867E1,-3.152829643E-2,1.499405164E-2,1.848889589E-3,3.496102764E-2
1.336469567E1,-3.723693307E-2,-1.896569978E-2,-1.030858272E-1,1.112338740E-1
1.337465167E1,1.614781693E-3,1.031651666E-2,-8.063661218E-2,8.130990874E-2
1.338460767E1,-9.422258120E-3,-2.107369412E-2,-8.976528525E-2,9.268595346E-2
1.339456367E1,4.209392276E-3,1.519590849E-2,-9.785256922E-2,9.911488244E-2
1.340451967E1,-3.621942619E-2,-1.156990388E-2,-3.588202357E-2,5.228029385E-2
1.341447567E1,-2.981034793E-2,-4.021020569E-3,-5.923697233E-2,6.643676950E-2
1.342443167E1,-4.147667605E-2,-1.417471055E-2,-8.034717500E-2,9.152543694E-2
1.343438867E1,-3.235533027E-2,2.988157433E-2,-1.135815793E-1,1.218218004E-1
1.344434467E1,-1.103890361E-2,7.463952508E-3,-1.628309226E-1,1.633752654E-1
1.345430067E1,-1.324405309E-2,-8.960565627E-3,-5.101578712E-2,5.346313884E-2
1.346425667E1,-1.733534988E-3,-3.135419559E-2,-6.478831887E-2,7.199734014E-2
1.347421267E1,1.794393539E-2,-3.554354288E-2,-4.936862648E-2,6.342388775E-2
1.348416867E1,1.765237860E-3,-1.092387792E-3,-6.808030128E-2,6.811194314E-2
1.349412467E1,-9.491876531E-3,2.489658544E-2,-9.847178936E-2,1.020128864E-1
1.350408167E1,1.137559360E-2,1.822896888E-2,-1.005703551E-1,1.028401466E-1
1.351403767E1,-9.114091583E-3,1.759884004E-2,-6.330020249E-2,6.633024552E-2
1.352399367E1,3.337079063E-3,-4.902872052E-3,-5.267405748E-2,5.300689184E-2
1.353394967E1,-4.121802812E-2,2.189983260E-2,-7.946658432E-2,9.216000507E-2
1.354390567E1,-1.829979328E-2,9.667256456E-3,-4.623451889E-2,5.065539476E-2
1.355386167E1,1.891746026E-2,2.229510438E-2,-1.719139874E-2,3.391881738E-2
1.356381767E1,-4.367066100E-3,-1.125223562E-4,-8.994011700E-2,9.004614691E-2
1.357377467E1,1.148747642E-2,-3.103586951E-2,-9.352972269E-2,9.921187599E-2
1.358373067E1,-1.336662535E-2,-1.932320220E-2,-9.847061992E-2,1.012349535E-1
1.359368667E1,-3.524222855E-2,-3.685509162E-2,-4.323431253E-2,6.685445558E-2
1.360364267E1,-1.445364101E-2,1.708826847E-2,-7.631668925E-2,7.953083500E-2
1.361359867E1,-1.805740792E-2,2.700536549E-3,-5.835228860E-2,6.114206787E-2
1.362355467E1,-1.542552134E-2,1.932223376E-2,-1.652317894E-1,1.670713609E-1
1.363351067E1,-2.986437986E-2,1.401705500E-3,-7.616290748E-2,8.182074577E-2
1.364346767E1,-1.526280429E-2,-1.103714945E-2,-1.203193259E-1,1.217846955E-1
1.365342367E1,1.414580338E-2,1.140587121E-2,-2.167913675E-2,2.828749939E-2
1.366337967E1,-2.452249154E-3,-3.909941744E-3,-1.344801128E-2,1.421795266E-2
1.367333567E1,-6.147877654E-2,1.398650330E-2,-1.300572789E-1,1.445342798E-1
1.368329167E1,8.498562500E-5,3.072127104E-2,-4.742910504E-2,5.650950117E-2
1.369324767E1,8.561091162E-3,1.058585403E-2,-3.335778058E-2,3.602907316E-2
1.370320367E1,-2.853549046E-2,5.489585325E-3,-7.317498028E-2,7.873364911E-2
1.371316067E1,-6.338538911E-2,-1.283737924E-2,9.304674268E-3,6.533821869E-2
1.372311667E1,-4.906981548E-2,-1.514715733E-2,-7.347318828E-2,8.964146676E-2
1.373307267E1,-2.406229740E-2,-3.061845141E-2,-1.364909703E-1,1.419375521E-1
1.374302867E1,-2.070827968E-2,-3.159605104E-2,-1.610428441E-1,1.654144519E-1
1.375298467E1,-6.438405700E-3,-3.963995598E-2,-1.541589171E-1,1.593039575E-1
1.376294067E1,-7.138335686E-3,-2.363256359E-2,-8.425486922E-2,8.779713484E-2
1.377289667E1,-4.717796713E-2,-2.033380207E-2,-1.432339793E-1,1.521683178E-1
1.378285367E1,-3.345948558E-2,-1.550626773E-3,-1.034202880E-1,1.087092341E-1
1.379280967E1,-5.830350090E-2,6.119147725E-3,-1.047686559E-1,1.200550434E-1
1.380276567E1,-2.944082217E-2,4.187883658E-2,-6.809667349E-2,8.519246389E-2
1.381272167E1,-1.652172809E-2,3.966915552E-3,-6.899480581E-2,7.105622525E-2
1.382267767E1,8.763112463E-3,1.617997661E-2,-6.675415277E-2,6.924377731E-2
1.383263367E1,3.299757382E-2,-8.653933983E-3,-1.107649755E-1,1.158991383E-1
1.384258967E1,7.239931058E-3,-1.785942486E-2,-7.184824705E-2,7.438780990E-2
1.385254667E1,2.051387804E-2,-1.781175178E-2,-7.768903077E-2,8.230226725E-2
1.386250267E1,2.957198253E-2,2.685353888E-2,-9.490615726E-2,1.029698664E-1
1.387245867E1,2.682814004E-2,1.648655344E-2,-1.134681433E-1,1.177564227E-1
1.388241467E1,-4.366408288E-4,1.492150962E-2,-1.705001307E-1,1.711523785E-1
1.389237067E1,-4.669093061E-3,3.058143122E-2,-1.164601636E-1,1.204989380E-1
1.390232667E1,-1.572676258E-2,2.670825385E-2,-1.312775928E-1,1.348868720E-1
1.391228267E1,4.781871233E-3,1.744165957E-2,-7.618863523E-2,7.830572086E-2
1.392223967E1,5.393563081E-3,-1.183039734E-2,-1.439929479E-1,1.445787601E-1
1.393219567E1,1.399183888E-2,-4.422506841E-2,-1.874020922E-1,1.930574329E-1
1.394215167E1,7.492439412E-3,-3.115069421E-2,-1.179453564E-1,1.222195135E-1
1.395210767E1,-3.409781881E-2,-9.103932045E-3,-1.579139990E-1,1.618096842E-1
1.396206367E1,-3.229698602E-2,-5.544384699E-3,-1.365073425E-1,1.403855051E-1
1.397201967E1,7.414525263E-3,2.990216749E-2,-9.054647326E-2,9.564402034E-2
1.398197567E1,-2.902049873E-2,-1.408237936E-2,-1.417353380E-1,1.453595844E-1
1.399193267E1,-3.031441446E-2,-5.483025480E-3,-1.098475474E-1,1.140855423E-1
1.400188867E1,-2.939786341E-2,2.005905602E-3,-8.499746561E-2,8.996014223E-2
1.401184467E1,-1.043874174E-2,6.746882871E-3,-4.428213358E-2,4.599342466E-2
1.402180067E1,-8.182374313E-3,1.774302872E-2,-1.050569236E-1,1.068584275E-1
1.403175667E1,-2.026219195E-2,1.145222867E-2,-1.845392954E-1,1.860012407E-1
1.404171267E1,-3.390937401E-2,1.087954871E-2,-1.141885203E-1,1.196128271E-1
1.405166867E1,7.206876017E-3,1.910029538E-2,-7.856026590E-2,8.116942604E-2
1.406162567E1,-1.465111244E-2,-3.332255110E-3,-8.409933329E-2,8.543100654E-2
1.407158167E1,-6.457167953E-2,1.020699101E-2,-8.409582496E-2,1.065166289E-1
1.408153767E1,-4.123098336E-2,1.100915590E-2,-1.267541867E-1,1.337453527E-1
1.409149367E1,-4.321691707E-2,-8.517054319E-3,-1.875248837E-1,1.926287210E-1
1.410144967E1,-1.694629077E-2,-2.958477331E-2,-1.637243772E-1,1.672366804E-1
1.411140567E1,-7.658609971E-3,-4.376863841E-2,-1.105860507E-1,1.191789521E-1
1.412136167E1,-5.860901792E-3,-2.470370041E-2,-6.972103000E-2,7.420003374E-2
1.413131867E1,-4.929020070E-4,-1.919368638E-2,-1.857286191E-1,1.867183989E-1
1.414127467E1,-1.087518157E-2,1.037208349E-2,-1.575883090E-1,1.583032686E-1
1.415123067E1,-1.318196297E-2,2.275275864E-2,-8.274453342E-2,8.682228967E-2
1.416118667E1,-3.163745664E-3,3.113825060E-2,-1.255537534E-1,1.293960777E-1
1.417114267E1,-9.408846069E-3,9.319401942E-3,-1.087903708E-1,1.095934415E-1
1.418109867E1,-1.862738354E-2,-1.857989319E-2,-1.234633738E-1,1.262354804E-1
1.419105467E1,9.971037582E-3,-2.221338954E-3,-1.677724046E-1,1.680831213E-1
1.420101167E1,2.870379891E-2,-1.538903106E-2,-1.189744663E-1,1.233517490E-1
1.421096767E1,2.052674191E-2,1.121474035E-2,-1.445688987E-1,1.464489126E-1
1.422092367E1,1.874025308E-2,9.454874620E-3,-8.798363864E-2,9.045281869E-2
1.423087967E1,7.677394152E-4,2.785485629E-3,-1.379808408E-1,1.380110893E-1
1.424083567E1,-1.260738267E-2,-7.620493434E-3,-1.084892392E-1,1.094848530E-1
1.425079167E1,-1.611801440E-2,4.435268389E-2,-7.106296599E-2,8.530472491E-2
1.426074767E1,-4.032733273E-3,4.583718231E-2,-5.714074552E-2,7.336467146E-2
1.427070467E1,-3.630855968E-2,1.819132743E-2,4.083695412E-3,4.081559099E-2
1.428066067E1,-3.178279649E-2,5.754573829E-4,-1.134213656E-1,1.177916953E-1
1.429061667E1,-3.525743131E-3,-2.659478132E-2,-6.132676721E-2,6.693792373E-2
1.430057267E1,3.865850084E-3,-2.860593114E-2,-6.491871178E-2,7.104704943E-2
1.431052867E1,-2.527934052E-3,-2.852407012E-2,-1.176079720E-1,1.210439925E-1
1.432048467E1,-3.559066778E-2,-2.213563984E-2,-1.035401559E-1,1.117015938E-1
1.433044067E1,-1.086485758E-3,-6.043554191E-3,-4.770567834E-2,4.809923851E-2
1.434039767E1,-1.018449750E-2,2.910305411E-3,-1.643131918E-1,1.646542403E-1
1.435035367E1,-4.061552737E-2,-6.460131761E-3,-1.583221346E-1,1.635764429E-1
1.436030967E1,-2.015562644E-2,-1.642841019E-2,-2.292757577E-1,2.307455633E-1
1.437026567E1,-3.916159892E-2,-1.845213152E-2,-3.827353477E-2,5.778386844E-2
1.438022167E1,2.955219336E-4,-9.775174130E-3,-1.735944772E-1,1.738697325E-1
1.439017767E1,-1.495810954E-2,-1.316263061E-3,-1.441046298E-1,1.448848574E-1
1.440013367E1,-1.072867228E-2,1.489771876E-2,-1.420066488E-1,1.431884588E-1
1.441009067E1,-4.642060652E-2,1.800885776E-2,-1.659574288E-1,1.732658646E-1
1.442004667E1,7.563994713E-3,9.962303303E-3,-1.497939706E-1,1.503153190E-1
1.443000267E1,-2.146317350E-2,7.982107177E-3,-8.243287683E-2,8.555443316E-2
1.443995867E1,-2.776263474E-2,1.852653734E-4,-8.228260338E-2,8.684022703E-2
1.444991467E1,-3.596035799E-2,2.937588153E-2,-6.955613852E-2,8.363101200E-2
1.445987067E1,-4.622587597E-2,-2.209370434E-2,-1.515820491E-1,1.600065030E-1
1.446982667E1,1.256690897E-2,-2.805384435E-2,-4.185846269E-2,5.193338312E-2
1.447978367E1,-1.250511121E-2,-3.866761884E-2,-7.044666946E-2,8.132832096E-2
1.448973967E1,-1.233888583E-2,-4.685686363E-2,-1.590641463E-1,1.662805353E-1
1.449969567E1,-2.187962316E-2,-3.957810340E-2,-1.472416610E-1,1.540300325E-1
1.450965167E1,-2.716707755E-3,-2.185195852E-3,-7.000461996E-2,7.009138604E-2
1.451960767E1,-5.615923556E-2,-8.419570271E-3,-1.566755587E-1,1.666492712E-1
1.452956367E1,-4.681275370E-2,2.749108639E-2,-2.329940021E-2,5.907669413E-2
1.453951967E1,-1.721058492E-2,-1.096526524E-2,-1.168571895E-1,1.186256466E-1
1.454947667E1,-1.536330331E-2,-1.537474193E-2,-7.524314046E-2,7.831949926E-2
1.455943267E1,-2.604934573E-4,-2.572043985E-3,-1.435029513E-1,1.435262355E-1
1.456938867E1,1.304999862E-2,-2.661884626E-2,-1.351174593E-1,1.383314615E-1
1.457934467E1,3.581668094E-2,2.901362825E-2,-9.589784503E-2,1.064002911E-1
1.458930067E1,1.451978764E-2,-4.108619168E-3,-5.188994586E-2,5.403953614E-2
1.459925667E1,-2.726501841E-3,-1.786470562E-3,-8.542197347E-2,8.548414379E-2
1.460921267E1,-1.390807752E-2,-2.360296207E-2,-5.128826737E-2,5.814654597E-2
1.461916967E1,2.325746471E-2,4.651863875E-2,-5.203788042E-2,7.357196759E-2
1.462912567E1,-1.024616735E-2,6.063173426E-2,-2.628849685E-2,6.687507915E-2
1.463908167E1,-4.349818641E-2,1.556587279E-2,-1.166975605E-1,1.255097974E-1
1.464903767E1,4.139189143E-3,-8.274906501E-4,-8.810526073E-2,8.820631834E-2
1.465899367E1,2.402895000E-3,-5.506564178E-2,-1.041190302E-1,1.178081969E-1
1.466894967E1,1.299894512E-2,-5.546135210E-2,-1.475322676E-1,1.581477288E-1
1.467890567E1,4.159654398E-3,-3.652841499E-2,-9.349931717E-2,1.004676572E-1
1.468886267E1,-5.143210888E-2,-4.218466423E-2,-1.562229842E-1,1.697952547E-1
1.469881867E1,8.290419895E-3,1.718949839E-2,-1.357167989E-1,1.370520318E-1
1.470877467E1,-1.512188639E-2,9.468067400E-3,-1.653516573E-1,1.663114137E-1
1.471873067E1,-2.762659561E-2,-2.512513848E-2,-1.864560127E-1,1.901587391E-1
1.472868667E1,-1.328100018E-2,-3.775713427E-2,-5.547896683E-2,6.840980862E-2
1.473864267E1,-2.925539235E-2,-2.510368651E-2,-1.355653560E-1,1.409398411E-1
1.474859867E1,-4.398750700E-4,5.887780711E-3,-1.228406453E-1,1.229824524E-1
1.475855567E1,3.004337775E-2,3.904931411E-2,-8.227441728E-2,9.589855691E-2
1.476851167E1,-2.473892989E-2,1.317580512E-2,-1.551739937E-1,1.576850811E-1
1.477846767E1,-1.388004743E-2,2.052485984E-2,-1.174512666E-1,1.200363513E-1
1.478842367E1,1.071505923E-2,2.051532157E-3,-3.347530961E-2,3.520820404E-2
1.479837967E1,-5.963831060E-3,5.136066321E-3,-1.451430953E-1,1.453563365E-1
1.480833567E1,-4.663635051E-2,1.518658949E-2,-3.661994219E-2,6.120949154E-2
1.481829167E1,-3.840518849E-2,8.471701853E-3,-9.260410845E-2,1.006093889E-1
1.482824867E1,-1.087490749E-2,-9.440914392E-3,-8.706270218E-2,8.824572844E-2
1.483820579E1,-9.033948183E-3,-5.982933182E-2,-8.616281569E-2,1.052862383E-1
1.484816179E1,-1.363914214E-2,-5.478355017E-2,-1.505283809E-1,1.607670893E-1
1.485811779E1,-2.199064717E-2,-5.143210888E-2,-1.276277608E-1,1.393473922E-1
1.486807379E1,-1.162857704E-2,-3.912768507E-2,-9.439861894E-2,1.028459955E-1
1.487802979E1,1.762071228E-2,5.730782971E-3,-7.209441483E-2,7.443746385E-2
1.488798579E1,-5.173899634E-2,-2.091000862E-3,-8.047522902E-2,9.569513317E-2
1.489794179E1,-3.047170456E-2,-1.118325675E-2,-8.017702103E-2,8.649823531E-2
1.490789879E1,-6.959155072E-3,-1.712145142E-2,-7.523904741E-2,7.747572648E-2
1.491785479E1,-7.098428439E-3,-4.201407172E-3,-9.529850543E-2,9.565482029E-2
1.492781079E1,3.058389802E-2,3.219330758E-3,-1.535280025E-1,1.565777330E-1
1.493776679E1,3.238279391E-3,2.436607853E-3,-1.315208369E-1,1.315832591E-1
1.494772279E1,1.505351052E-2,-7.023364808E-3,-1.325674886E-1,1.336041723E-1
1.495767879E1,3.388845194E-2,1.087317159E-2,-9.663985670E-2,1.029850229E-1
1.496763479E1,2.073892275E-2,-3.006795432E-2,-1.255321187E-1,1.307382791E-1
1.497759179E1,2.468091454E-2,-2.312793061E-3,-8.616924763E-2,8.966401614E-2
1.498754779E1,3.028720664E-2,6.229435349E-2,-7.824217737E-2,1.044975583E-1
1.499750379E1,-2.190858515E-2,3.745013718E-2,-1.108795810E-1,1.190662856E-1
1.500745979E1,6.772409622E-3,3.594192099E-2,-6.343468845E-2,7.322326758E-2
1.501741579E1,-1.531908374E-2,1.465900619E-2,3.864600241E-2,4.408031637E-2
1.502737179E1,-1.298812777E-4,-3.303833988E-2,-1.179313231E-1,1.224718161E-1
1.503732779E1,4.027543869E-3,-1.897222308E-2,-1.372364902E-1,1.386002187E-1
1.504728479E1,-3.334899148E-2,2.004215391E-2,-2.735970676E-1,2.763497758E-1
1.505724079E1,-5.994925456E-2,2.401926555E-3,-2.821252316E-1,2.884342710E-1
1.506719679E1,-5.470190842E-2,3.893702930E-2,-2.277777010E-1,2.374680444E-1
1.507715279E1,-4.951522714E-2,-2.624906469E-3,-2.592088240E-1,2.639088144E-1
1.508710879E1,-6.223710559E-2,-1.757990967E-2,-1.605633724E-1,1.730985473E-1
1.509706479E1,-6.224114383E-2,-5.435635624E-2,-1.006902230E-1,1.302578000E-1
1.510702079E1,-5.277733393E-2,-5.841536544E-2,-1.123682821E-1,1.372021600E-1
1.511697779E1,-9.143035300E-3,-1.912554804E-2,-6.551746666E-2,6.886160121E-2
1.512693379E1,7.831029743E-3,-3.035667887E-2,-6.552097499E-2,7.263505451E-2
1.513688979E1,-2.685512859E-2,-4.943638109E-2,-5.085732758E-2,7.583944538E-2
1.514684579E1,1.249285033E-2,-4.277976461E-2,-3.125453711E-2,5.443368129E-2
1.515680179E1,4.072852481E-2,-1.094375845E-2,-2.512723982E-2,4.909131047E-2
1.516675779E1,5.603843573E-3,2.433198195E-2,-5.806460559E-2,6.320559177E-2
1.517671379E1,2.853092233E-2,7.813453378E-2,-9.998621821E-2,1.300625339E-1
1.518667079E1,1.612037156E-2,5.898217991E-2,-7.394798219E-2,9.595346787E-2
1.519662679E1,2.240296723E-2,6.720259767E-3,-7.529693484E-2,7.884594618E-2
1.520658279E1,1.300555978E-2,-1.166554241E-2,-1.657118458E-1,1.666302652E-1
1.521653879E1,1.078518927E-2,-4.779477529E-3,-3.398577154E-2,3.597494100E-2
1.522649479E1,1.387458393E-2,-5.028970912E-3,-6.751955330E-2,6.911356384E-2
1.523645079E1,3.897943988E-2,3.652167242E-2,-9.910387337E-2,1.125824454E-1
1.524640679E1,1.429297049E-3,3.167729080E-2,-1.493951905E-1,1.527233334E-1
1.525636379E1,-2.131118244E-2,-5.123019721E-3,-1.865191627E-1,1.878025822E-1
1.526631979E1,-2.741761247E-2,-7.357624546E-3,-1.255923450E-1,1.287606199E-1
1.527627579E1,-2.782061353E-2,-1.080220101E-2,-2.010337061E-1,2.032368693E-1
1.528623179E1,-9.081511628E-3,-2.358896529E-2,-1.243895727E-1,1.269317885E-1
1.529618779E1,-3.094145525E-3,-3.960081618E-3,-1.451927966E-1,1.452797445E-1
1.530614379E1,-1.152398497E-2,1.067358054E-2,-1.886007714E-1,1.892537411E-1
1.531609979E1,-2.896959141E-2,-4.968920007E-2,-1.486309594E-1,1.593719421E-1
1.532605579E1,-2.556813816E-2,-2.096407710E-2,-6.106188834E-2,6.943901227E-2
1.533601279E1,7.546489611E-3,-4.350297382E-2,-7.288846672E-2,8.521846523E-2
1.534596879E1,-3.337751493E-2,1.680160873E-3,-9.728831291E-2,1.028683492E-1
1.535592479E1,5.563406423E-3,1.600430433E-2,-1.692944348E-1,1.701402213E-1
1.536588079E1,-1.193864392E-2,6.182474898E-2,-1.112157959E-1,1.278036934E-1
1.537583679E1,-2.451532871E-2,4.531338142E-2,-1.025367737E-1,1.147523152E-1
1.538579279E1,-8.479467686E-3,3.706279568E-2,-1.073268127E-1,1.138621839E-1
1.539574879E1,1.645011798E-2,2.657608850E-2,-1.389099634E-1,1.423828388E-1
1.540570579E1,3.761331104E-3,3.884159178E-3,-1.404086047E-1,1.405126706E-1
1.541566179E1,1.284085102E-3,5.081952168E-2,-1.458009070E-1,1.544091226E-1
1.542561779E1,-1.624595879E-2,-1.169466885E-2,-6.601389527E-2,6.898210511E-2
1.543557379E1,-7.762251869E-3,1.581554890E-2,-6.990404785E-2,7.208994414E-2
1.544552979E1,-7.611357160E-3,-5.151596161E-2,-2.155049801E-2,5.635823828E-2
1.545548579E1,-3.929822277E-2,-9.700348042E-2,-4.160060048E-2,1.126260871E-1
1.546544179E1,2.142090909E-4,-1.126015312E-1,-1.918810594E-1,2.224803175E-1
1.547539879E1,-9.611726180E-3,-1.030359614E-1,-2.544415891E-1,2.746803905E-1
1.548535479E1,4.993520340E-2,-1.814133374E-2,-2.483113682E-1,2.539314240E-1
1.549531079E1,6.012353813E-2,3.069821108E-2,1.632542610E-2,6.945314635E-2
1.550526679E1,8.475429453E-3,2.657616159E-2,-9.714973390E-2,1.010752001E-1
1.551522279E1,5.921950378E-3,1.046059571E-2,-1.041932899E-1,1.048843898E-1
1.552517879E1,4.242514925E-2,6.860563707E-2,-3.175038099E-4,8.066428909E-2
1.553513479E1,3.837768830E-2,4.336417554E-2,-8.878880024E-2,1.060035364E-1
1.554509179E1,4.681359423E-2,1.060247109E-1,-1.702258962E-1,2.059359310E-1
1.555504779E1,4.437367905E-2,9.656073656E-2,-7.457831204E-2,1.298265145E-1
1.556500379E1,3.304921204E-2,1.749084927E-2,-4.434119046E-2,5.800277059E-2
1.557495979E1,2.867368575E-2,-2.447083505E-2,-1.407430655E-1,1.457038521E-1
1.558491579E1,8.952324707E-3,-4.044341823E-2,-9.897932768E-2,1.072973509E-1
1.559487179E1,-2.299914569E-2,9.714381360E-3,-1.684401566E-1,1.702804048E-1
1.560482779E1,-2.428354142E-2,8.876712900E-3,-1.061684793E-1,1.092713705E-1
1.561478479E1,-6.953771979E-2,2.602504324E-3,-2.001724112E-1,2.119227730E-1
1.562474079E1,-9.164494582E-2,-5.117536129E-2,-9.134461820E-2,1.391457975E-1
